subj_idx,trial,run,rt,response,cond,img_lvl_at_response,amygdala,anterior_temporal,fusiform_gyrus,inferior_occipital,insula,intraparietal_sulcus,superior_temporal,response_emo,caudate,resp_grp
9002,1,1,1.0847097094719,0,easy,6,-1.03515422344208,-0.67378830909729,-3.00344228744507,3.01274919509888,-2.75593781471252,2.47013545036316,-0.682064652442932,sad,0.129583772491921,ER
9002,2,1,0.883840835408462,1,easy,8,0.980195105075836,6.67782163619995,1.90895903110504,1.84049892425537,1.9608279466629,1.98368656635284,1.27846527099609,happy,5.94708384884085,ER
9002,3,1,0.98385828283147,0,ambig,-3,1.13103020191193,-3.64271640777588,-2.46895503997803,-2.34812307357788,-0.633849740028381,-1.27596604824066,-0.569900453090668,sad,-5.12423885392033,ER
9002,4,1,1.083971900146,1,ambig,6,-1.88616895675659,1.2584080696106,1.99789297580719,2.88506698608398,-0.893116235733032,-1.85981488227844,2.10793352127075,happy,9.67461223339365,ER
9002,5,1,1.38396836504722,0,ambig,1,-0.475490391254425,1.62376499176025,-0.763286828994751,-1.69341492652893,0.186055228114128,-0.796793043613434,2.1105170249939,sad,-2.69512909817825,ER
9002,6,1,1.28394825679717,0,easy,8,6.41909217834473,2.30820989608765,6.95850944519043,4.1707329750061,1.52769374847412,-1.78818321228027,3.15247964859009,sad,9.91141447993862,ER
9002,7,1,0.983808107235888,1,ambig,5,-2.85233497619629,-1.08942914009094,-3.44685983657837,-3.64645600318909,-2.54415798187256,-1.15042114257812,-1.77568876743317,happy,-3.92329893483069,ER
9002,8,1,1.38402956406911,0,easy,3,1.3588330745697,-2.53847360610962,0.893696665763855,2.76244688034058,-1.56130158901215,1.20932388305664,-2.18130469322205,sad,-29.524348363792,ER
9002,9,1,1.18389887944971,0,easy,11,-1.08210110664368,-6.21103143692017,-3.6576509475708,-1.98899161815643,-1.61590945720673,-3.12056612968445,-4.65310478210449,sad,-18.9242842292416,ER
9002,10,1,0.983783779674397,1,easy,5,-0.32203534245491,2.47700190544128,-2.59604620933533,-2.06421422958374,1.18392956256866,2.26308965682983,1.31303060054779,happy,-40.1951426730061,ER
9002,11,1,1.58406978056919,1,ambig,-1,1.96841049194336,-3.80044603347778,-4.14382839202881,-2.65893173217773,1.8786027431488,1.60810101032257,-2.92805957794189,happy,16.1327627497743,ER
9002,12,1,1.38403222489615,1,easy,7,2.91630506515503,4.19334268569946,4.82259654998779,5.61665105819702,1.74852240085602,2.11235976219177,4.44871950149536,happy,9.27113977110582,ER
9002,13,1,1.48406449692695,0,ambig,-2,-0.594167113304138,-2.20598936080933,-0.318925857543945,-7.12226104736328,-0.0256115794181824,-0.655242204666138,-1.79300892353058,sad,19.374870815801,ER
9002,14,1,1.88424680159086,1,ambig,6,1.55158865451813,2.18911361694336,5.09419918060303,-3.75734043121338,3.3102822303772,2.38727426528931,-1.7383143901825,happy,-1.59101342244435,ER
9002,15,1,1.58414428372626,0,ambig,1,0.556381523609161,5.0237455368042,2.95846271514893,2.66011595726013,2.30332207679749,1.91526770591736,1.02204537391663,sad,1.12493624426307,ER
9002,16,1,0.983855241886275,1,ambig,3,1.44719171524048,8.4969367980957,-0.671377897262573,5.53646469116211,2.89833450317383,-0.18846383690834,1.6352231502533,happy,27.5454748923895,ER
9002,17,1,1.08392666608636,1,easy,10,4.85611248016357,2.43695187568665,4.24236583709717,5.13223743438721,0.814264297485352,2.05445551872253,6.14680862426758,happy,-11.9795876951961,ER
9002,18,1,1.58418457624998,0,easy,3,-1.26742231845856,3.66985058784485,-0.913757920265198,-0.917948126792908,-0.965527415275574,1.17686915397644,-3.03206253051758,sad,-8.81760129540782,ER
9002,19,1,0.783769411208397,1,easy,5,-3.73468399047852,-3.48122787475586,1.78091537952423,12.7671098709106,-3.03063917160034,-1.22795343399048,-0.876512408256531,happy,-12.4126986636397,ER
9002,20,1,1.28399311073869,1,ambig,0,1.02525579929352,4.64700698852539,1.66020882129669,7.78489637374878,3.4591052532196,0.961310386657715,6.67463302612305,happy,-13.9321413596347,ER
9002,21,1,1.1839152245301,0,ambig,-1,1.17188227176666,0.0093848705291748,-0.492000818252563,-2.90733098983765,3.77800989151001,3.80947208404541,6.64902400970459,sad,11.1369816963542,ER
9002,22,1,0.983885651338142,0,ambig,-5,-7.74518775939941,-0.724840044975281,-2.1728253364563,-1.54142069816589,-3.5206880569458,1.22037863731384,-8.2973461151123,sad,18.1336447346152,ER
9002,23,1,1.08386926824596,1,easy,6,-3.50052905082703,-4.09303998947144,-1.63511526584625,-3.25374031066895,-0.363585710525513,0.613236904144287,1.26867866516113,happy,18.0116204976781,ER
9002,24,1,1.08385900505596,0,easy,6,3.0334005355835,4.06969594955444,1.38280630111694,-1.98530185222626,2.83583474159241,0.970690011978149,3.57790660858154,sad,-12.1304650546448,ER
9002,25,1,1.18390838240342,0,easy,7,-0.541042625904083,-0.640207529067993,-2.85025501251221,-2.10421633720398,1.30446481704712,-0.857005476951599,-0.371286034584045,sad,18.9781186026113,ER
9002,26,1,1.1839289087834,1,ambig,-1,-0.722678601741791,-3.89851760864258,-2.28706097602844,-5.80463314056396,-2.47031807899475,-2.52744436264038,-4.62538146972656,happy,1.2428328273366,ER
9002,27,1,1.08395707553822,1,easy,6,-2.95489096641541,-0.937221050262451,1.01199102401733,0.346807241439819,-2.6418890953064,-0.800379276275635,-3.63467741012573,happy,9.08531977164229,ER
9002,28,1,1.38402614300577,1,ambig,-1,1.06778824329376,-1.88267350196838,-3.50442361831665,0.176227807998657,4.38832187652588,2.35511040687561,3.34975910186768,happy,-12.1408780531444,ER
9002,29,1,1.38400979792539,0,easy,9,-2.47366285324097,2.40271759033203,0.243022203445435,-1.271803855896,0.653688907623291,-2.76607704162598,3.70481872558594,sad,3.21786869948426,ER
9002,30,1,1.28400299381053,0,easy,8,2.71131324768066,6.79909610748291,4.12809658050537,1.7445946931839,4.90851259231567,-0.551928758621216,-0.538716316223145,sad,-1.71759535975943,ER
9002,31,1,0.883799022412148,1,easy,4,-1.0469583272934,0.0790782570838928,0.367666214704514,-6.68313312530518,-2.04001760482788,-0.987131595611572,-1.73561978340149,happy,3.00632506242437,ER
9002,32,1,1.28397372471312,1,ambig,0,1.92180681228638,-0.984965026378632,3.1543607711792,3.25405240058899,0.448125720024109,1.77127754688263,2.72884178161621,happy,-16.9260645643715,ER
9002,33,1,1.18394601410009,0,easy,9,0.958014607429504,0.121068835258484,1.69123935699463,-4.87959957122803,0.753850817680359,-0.353288769721985,3.63355302810669,sad,-2.98885511127686,ER
9002,34,1,1.68415374866817,1,ambig,-4,-1.6838561296463,-1.41516089439392,0.579013466835022,-2.30531644821167,-2.71478247642517,-0.729174733161926,-1.55155229568481,happy,-23.4236335766709,ER
9002,35,1,1.08392514561376,1,ambig,-2,-2.75322556495667,-2.37263441085815,-3.36281132698059,-6.18002939224243,-3.01362991333008,-4.81771755218506,-2.8409686088562,happy,-6.76583512577973,ER
9002,36,1,0.883808145247713,0,ambig,0,-1.43547987937927,-1.70491766929626,-0.489775538444519,-0.959985494613647,0.446921855211258,0.6406090259552,1.04119908809662,sad,3.93295820412528,ER
9002,37,1,1.38405503198504,0,easy,7,5.78035354614258,6.56962013244629,-0.162717938423157,6.10260581970215,3.83920669555664,-1.38482511043549,5.24018335342407,sad,3.39404840127164,ER
9002,38,1,1.18389811921344,0,ambig,1,-2.45913052558899,-0.201656550168991,0.0542121827602386,-2.45826005935669,2.55453014373779,3.3304181098938,0.39642459154129,sad,9.23249962819822,ER
9002,39,1,1.48408502330693,0,ambig,-2,2.42618989944458,0.388146430253983,-0.588876247406006,1.35853433609009,0.973378777503967,-1.23306083679199,1.57486855983734,sad,11.1186605788896,ER
9002,40,1,1.38406909635654,1,easy,5,0.952584981918335,0.922015488147736,-1.64434897899628,0.410698235034943,-1.61822772026062,-0.507578253746033,-2.51717376708984,happy,-17.8260121095394,ER
9002,1,2,1.48495397339401,0,easy,6,4.66778564453125,2.52183961868286,-1.92062592506409,4.11375522613525,2.33969163894653,-0.630632519721985,4.57240104675293,sad,11.6134611869018,ER
9002,2,2,1.28402656113573,1,ambig,0,-4.05918407440186,-3.72903370857239,2.62636947631836,-6.84198474884033,-0.565823435783386,-0.699238777160645,-3.91298580169678,happy,-0.95256053400654,ER
9002,3,2,0.883794460994366,0,easy,8,-3.96188759803772,-6.02893543243408,-2.87671899795532,-1.12547481060028,-3.06477165222168,2.71745252609253,-3.55720376968384,sad,-20.7969126704291,ER
9002,4,2,1.08388827415337,1,easy,6,-2.32238626480103,-3.86961603164673,-7.09948444366455,-4.22502994537354,-4.83469009399414,-4.74618196487427,-3.94091081619263,happy,4.23033365087839,ER
9002,5,2,0.983833955269972,0,ambig,1,0.875919699668884,-1.86878395080566,-2.44612646102905,3.07959032058716,2.4960036277771,1.27153074741364,-1.56284713745117,sad,-31.1549543233172,ER
9002,6,2,0.983845738932573,1,easy,5,0.989417612552643,2.08210015296936,-0.462997674942017,2.38467931747437,0.15673041343689,1.36285853385925,0.792306303977966,happy,7.03766924172976,ER
9002,7,2,0.983889072401482,1,easy,9,1.03824758529663,-2.47802066802979,-1.7169783115387,7.62899208068848,3.59711718559265,0.360726118087769,3.19574403762817,happy,-16.0958588174212,ER
9002,8,2,1.08390347887931,0,ambig,-6,-6.05451536178589,-0.126554250717163,-3.28603672981262,-12.2984027862549,-5.99235486984253,-5.57836151123047,-3.47138023376465,sad,26.9522004520463,ER
9002,9,2,1.08392590585005,0,easy,10,1.29692327976227,1.39726769924164,-0.328187882900238,2.70887017250061,-0.237678557634354,-0.387506425380707,0.168308734893799,sad,-21.9590391857147,ER
9002,10,2,1.08394301116674,0,easy,10,-1.35022747516632,-7.29947090148926,0.565375566482544,1.87429070472717,-1.16130757331848,-4.54952621459961,-3.77185201644897,sad,11.146147911252,ER
9002,11,2,1.58412337722811,0,easy,9,3.24589943885803,5.73941230773926,1.86672759056091,1.70828008651733,3.6874213218689,2.15292644500732,4.94356632232666,sad,28.7784321273987,ER
9002,12,2,0.983815329480706,1,easy,5,-0.461012125015259,-3.52739143371582,1.44173789024353,-7.51774930953979,0.24315357208252,-1.51901912689209,0.327186822891235,happy,-33.3378552677837,ER
9002,13,2,0.983851440704797,0,easy,5,2.08365321159363,3.08606648445129,-0.170301973819733,-0.192762613296509,-1.37534356117249,-0.95528656244278,-0.862361013889313,sad,19.2688726967295,ER
9002,14,2,1.28399121014795,0,ambig,0,2.79603481292725,6.29767990112305,0.9408318400383,-1.74180269241333,0.179912567138672,3.35678815841675,5.87947845458984,sad,8.57257803220634,ER
9002,15,2,0.883799782648438,1,ambig,4,1.25068593025208,1.40786075592041,-2.42059302330017,-5.39096879959106,-0.83925461769104,1.82265937328339,-1.76401472091675,happy,-1.19221318183973,ER
9002,16,2,1.58414428372626,0,ambig,-3,0.912932395935059,-0.534220099449158,2.86555004119873,0.760383546352386,1.15724420547485,-0.298087179660797,-0.0629556775093079,sad,-10.8759434213388,ER
9002,17,2,1.18394145268233,0,easy,5,-0.429661184549332,3.73460817337036,-1.13905692100525,1.25608897209167,6.54336881637573,1.14341330528259,0.0672873258590698,sad,-7.90298870080188,ER
9002,18,2,1.78422289215933,0,ambig,-3,-0.256300508975983,0.806955575942993,0.797009110450745,3.72097253799438,1.30792164802551,0.474360018968582,-2.23546004295349,sad,-17.4086834380178,ER
9002,19,2,0.983859423185919,0,easy,9,-4.61118412017822,-0.931567251682281,-3.75726175308228,-2.05436587333679,-1.66636455059052,-1.78349685668945,-1.72869443893433,sad,21.669022801605,ER
9002,20,2,0.783735200575052,1,ambig,-5,-1.39294755458832,-6.45312738418579,-0.697414696216583,-4.58771800994873,0.118403702974319,-3.57668733596802,-0.121057271957397,happy,25.2635380969489,ER
9002,21,2,1.48412075441288,1,ambig,2,-2.09387016296387,-4.45395755767822,-3.96530270576477,3.71148252487183,-2.51136374473572,-3.52059841156006,-5.7868185043335,happy,4.98812529267004,ER
9002,22,2,0.883794460994352,1,ambig,-4,-4.16572904586792,-1.48970746994019,1.97517085075378,0.887213468551636,-2.51159715652466,-1.23689579963684,-0.258044958114624,happy,3.34956129362293,ER
9002,23,2,1.58413554100886,1,ambig,1,1.07267737388611,5.22878408432007,2.57990431785583,6.80652093887329,0.869610726833344,0.385755300521851,0.247432708740234,happy,-6.10111134063075,ER
9002,24,2,1.08389169521669,1,easy,10,0.426810741424561,-2.74308586120605,0.0795975923538208,-5.48309421539307,-0.323897123336792,-0.543203175067902,-4.99352216720581,happy,-18.2372237782581,ER
9002,25,2,1.68423775477893,0,ambig,0,1.74977970123291,0.164573848247528,0.827551007270813,0.968031764030457,1.85102534294128,1.48424530029297,1.12101626396179,sad,-24.5029992841011,ER
9002,26,2,1.28397448494943,1,ambig,4,0.920613288879395,-3.59234714508057,-4.17077398300171,-3.96424913406372,-1.50547194480896,4.46799898147583,-3.19196128845215,happy,-19.4549826585696,ER
9002,27,2,0.883803203711778,1,easy,4,0.870930552482605,-0.952293395996094,1.36084926128387,-0.914581179618835,-5.28662967681885,-0.551697850227356,-1.54814231395721,happy,2.39518311729825,ER
9002,28,2,1.68417237445743,0,ambig,-4,1.08042192459106,1.84881925582886,2.3788275718689,-0.770568370819092,-0.689864158630371,-0.120368361473083,1.39791321754456,sad,22.1285845530062,ER
9002,29,2,0.883762150951753,1,easy,4,-1.02088987827301,-5.20114707946777,3.43804407119751,-6.12381792068481,-0.0726335048675537,1.95616102218628,-1.88159167766571,happy,-11.7201018891745,ER
9002,30,2,0.78374964506466,0,easy,5,-4.13171577453613,-9.01785278320312,-3.25597429275513,-0.470765590667725,-1.61315250396729,-6.37801074981689,-1.0822217464447,sad,10.4568413733507,ER
9002,31,2,1.38413067549655,0,ambig,1,-2.33276414871216,1.40497493743896,1.14957582950592,1.21850419044495,-1.27382278442383,0.288557708263397,-2.82254600524902,sad,15.5741773441307,ER
9002,32,2,2.28444925251668,0,easy,10,3.40376853942871,-0.300814092159271,0.834462642669678,0.418033242225647,1.6477142572403,2.10247015953064,3.76097631454468,sad,-22.0237592141604,ER
9002,33,2,0.983825592670712,1,easy,7,-0.0458736345171928,0.399509698152542,0.440514773130417,-2.71333074569702,-0.692608416080475,-2.16755652427673,-1.89498686790466,happy,22.3727034867444,ER
9002,34,2,1.98433989252541,0,ambig,1,1.89565682411194,3.67589712142944,0.928849697113037,2.14348745346069,2.3463454246521,0.288800299167633,5.24007129669189,sad,-18.4895875735213,ER
9002,35,2,1.68415488902261,1,ambig,4,-0.256728291511536,0.638007342815399,-1.61372900009155,0.584788799285889,-1.2824330329895,-2.21808218955994,2.24137115478516,happy,16.4830550074236,ER
9002,36,2,1.58411843569218,1,ambig,-1,-2.62735772132874,-0.937520146369934,3.52183365821838,1.20944631099701,-2.59802913665771,-0.7208411693573,-2.14817476272583,happy,18.4679223937698,ER
9002,37,2,2.68460228808317,1,ambig,-2,-0.756176114082336,0.063557356595993,-0.0614709854125977,-1.44792759418488,-2.40544438362122,1.03629302978516,1.3827440738678,happy,7.23154159362972,ER
9002,38,2,1.4840759004714,1,ambig,-2,-1.19818162918091,-1.20705556869507,-3.69074273109436,0.592218995094299,1.50291085243225,-2.26219844818115,1.00793862342834,happy,-20.4356246777302,ER
9002,39,2,1.58408726600402,0,easy,9,-2.63873195648193,3.17688846588135,0.0795900821685791,-1.47988104820251,2.33539319038391,0.209512770175934,2.84942221641541,sad,10.0453461572667,ER
9002,40,2,1.18393727138266,1,easy,7,-0.408217966556549,3.17643880844116,3.5817506313324,3.54671502113342,0.817103862762451,0.0427706241607666,-5.02784585952759,happy,-32.3109091601979,ER
9002,1,3,1.08475266282266,0,easy,6,2.52580451965332,0.568778514862061,4.09220314025879,7.60934066772461,1.32398986816406,-0.160111218690872,1.76038146018982,sad,60.5531156125186,ER
9002,2,3,0.88378001650473,1,ambig,-4,3.16466474533081,-0.847971439361572,6.49615907669067,0.124525785446167,3.50540995597839,2.794358253479,4.82998466491699,happy,11.2728691453479,ER
9002,3,3,0.983886791692594,0,ambig,-3,3.0179295539856,-0.826674818992615,3.4997501373291,-0.432027250528336,4.08921527862549,-0.676649153232574,-0.127835392951965,sad,16.4450374404766,ER
9002,4,3,1.78421224885119,0,ambig,-1,-0.779734492301941,-0.129132449626923,-5.17585182189941,-1.79097497463226,-0.253976464271545,-0.0160106420516968,-0.492525219917297,sad,-21.2074938235118,ER
9002,5,3,0.983866645430737,1,easy,9,-1.95799255371094,0.70329737663269,3.61376976966858,2.74042820930481,0.359108567237854,-0.37805962562561,-0.70015287399292,happy,-31.7566644322762,ER
9002,6,3,1.18395361646306,1,easy,11,-0.379067122936249,3.72397875785828,-0.693532407283783,1.91479063034058,-0.683767020702362,0.941159427165985,-0.594536542892456,happy,-30.6679838758724,ER
9002,7,3,1.0838704086004,0,easy,10,-4.10480642318726,-2.95322299003601,-3.01701354980469,-1.88002920150757,-1.07392883300781,0.0118244886398315,-1.69493985176086,sad,-5.43865345266594,ER
9002,8,3,1.38402272194244,0,easy,7,1.991579413414,1.09121131896973,1.28195917606354,-7.87938737869263,-0.74699592590332,-3.1686851978302,-0.781051158905029,sad,-16.2626608079162,ER
9002,9,3,1.08386508694633,1,easy,6,0.915795564651489,7.98990392684937,-1.0177309513092,7.15883159637451,1.34549641609192,0.841931760311127,6.38773059844971,happy,14.8484629953482,ER
9002,10,3,1.48409110519732,1,easy,6,-2.32003879547119,0.443070560693741,-2.79874444007874,1.76064562797546,-4.22013664245605,0.334083557128906,-0.435808062553406,happy,16.6060758303448,ER
9002,11,3,1.38401892076095,0,easy,9,1.78161418437958,-3.35785675048828,-2.04638504981995,-2.52683568000793,0.663359880447388,0.851271510124207,-2.05285120010376,sad,-20.4366196633396,ER
9002,12,3,1.78423315534934,1,ambig,3,-1.81054675579071,-0.513118803501129,-0.133364260196686,-2.47945928573608,-0.258542656898499,2.67256546020508,-2.63084053993225,happy,-14.8341086662774,ER
9002,13,3,1.5841594884522,0,easy,11,-0.34265011548996,1.10160875320435,0.44922149181366,1.2823805809021,1.67195439338684,1.26333856582642,1.62179040908813,sad,-2.91952587802426,ER
9002,14,3,1.28397372471311,1,ambig,4,-6.29221057891846,-11.4557762145996,-3.96097373962402,0.449094533920288,-5.91733646392822,-3.07069110870361,-6.01256990432739,happy,7.54604526075309,ER
9002,15,3,1.28397372471312,0,ambig,-4,1.7989616394043,1.47771894931793,-3.47598075866699,-1.83558392524719,0.682477831840515,-0.291826128959656,0.0403816699981689,sad,17.9413728232208,ER
9002,16,3,1.88427949175161,1,easy,2,3.99479126930237,5.90572023391724,1.56239533424377,8.06748580932617,0.698896884918213,3.18228244781494,1.04805386066437,happy,-2.87746858734041,ER
9002,17,3,2.08434745687654,0,easy,8,-1.26175999641418,-6.8041296005249,-1.55136632919312,-10.6208505630493,1.04068470001221,1.3674122095108,-1.23326539993286,sad,14.351332487829,ER
9002,18,3,1.58412907900035,1,ambig,1,1.89487838745117,-0.444396018981934,1.13948309421539,-2.5436065196991,-0.755743086338043,0.431101560592651,0.108337700366974,happy,-17.7251283644394,ER
9002,19,3,1.58411653510143,0,easy,5,1.45361256599426,-0.145277768373489,-0.315579295158386,-0.0886349678039551,0.127135038375854,-0.28100323677063,1.68097960948944,sad,1.01257449559578,ER
9002,20,3,2.3844929280919,0,ambig,-1,1.22662353515625,0.367182850837708,1.88655149936676,-0.453265994787216,-0.795281887054443,-2.70972084999084,1.60652434825897,sad,-6.53275022596414,ER
9002,21,3,1.38403336525059,1,ambig,1,-1.73037874698639,-2.87288928031921,-2.44927096366882,-0.312699466943741,-1.87750613689423,4.31489419937134,0.137870132923126,happy,-23.0114903049325,ER
9002,22,3,1.98429731929278,1,easy,5,0.573925137519836,-1.23501682281494,4.30590629577637,0.721216917037964,0.298886656761169,-0.0288808345794678,-2.60309433937073,happy,-22.4520396364556,ER
9002,23,3,0.983826352907016,1,ambig,-1,0.183612585067749,-5.69489288330078,3.6138334274292,-1.15596282482147,-6.266921043396,-2.71558380126953,-3.48256540298462,happy,-13.1408104457918,ER
9002,24,3,1.78422099156859,0,ambig,-3,-1.13804531097412,0.265790969133377,-0.964180529117584,0.177593559026718,-0.91484010219574,-2.09762454032898,-0.618901014328003,sad,-31.5506880962986,ER
9002,25,3,1.88426580749831,1,ambig,2,-0.673596382141113,5.35598134994507,1.65383756160736,0.751305103302002,2.17237710952759,1.43791592121124,5.14454889297485,happy,18.6270656412523,ER
9002,26,3,0.783764469672462,1,easy,5,-0.179419815540314,-4.13778638839722,-6.19984531402588,4.31759929656982,-2.39566445350647,0.330010175704956,-5.97417068481445,happy,24.0411610667389,ER
9002,27,3,0.783804001959908,1,ambig,-5,6.68838024139404,-1.91508173942566,-2.34025907516479,2.13672041893005,1.36414623260498,-2.81883192062378,-2.00062990188599,happy,18.4097500133081,ER
9002,28,3,1.98432924921724,0,easy,5,0.320292353630066,3.92432641983032,1.60837244987488,3.91355681419373,0.2438103556633,2.55223751068115,1.89927172660828,sad,7.60753692646039,ER
9002,29,3,1.48406943846288,0,ambig,2,-0.880705833435059,1.06185686588287,0.915573716163635,2.57563066482544,-0.26586639881134,2.17293167114258,-1.87994277477264,sad,12.5839518632475,ER
9002,30,3,1.18392016606603,1,ambig,-1,2.27197575569153,0.523739159107208,3.40959978103638,-1.42690062522888,-1.51649832725525,0.048568457365036,0.33586311340332,happy,11.6284415018795,ER
9002,31,3,1.28396612235014,1,easy,8,-2.46037149429321,7.12383937835693,0.258138418197632,1.74668443202972,-2.53774929046631,-1.08259856700897,-1.10847771167755,happy,-12.7832087402772,ER
9002,32,3,1.48410250874176,1,easy,10,1.29192233085632,-0.858931601047516,-0.0248687267303467,-5.90015363693237,-2.04694390296936,-0.788192093372345,2.68959808349609,happy,-0.711832255855148,ER
9002,33,3,1.68416667268519,1,ambig,-4,0.72798103094101,-0.46012082695961,-0.518166363239288,-2.65224647521973,0.00223362445831299,2.14598298072815,0.118138670921326,happy,3.80235580240629,ER
9002,34,3,1.98432962933538,0,ambig,-1,0.0947859287261963,3.39874601364136,-1.74499261379242,-0.659044981002808,-0.786746203899384,1.20936954021454,2.91564559936523,sad,-10.6620138714269,ER
9002,35,3,1.58416671069699,0,ambig,-1,-3.21706748008728,-2.73385071754456,-1.08901333808899,5.71247863769531,0.217969536781311,-0.40116012096405,0.686420917510986,sad,-7.54905577422759,ER
9002,36,3,1.48411809358583,0,easy,6,1.17773461341858,1.42005729675293,3.99362421035767,5.47708511352539,3.56179904937744,5.48990249633789,2.85820007324219,sad,-12.2720206567034,ER
9002,37,3,1.9843148047276,1,easy,9,-3.8758978843689,-4.59320211410522,-0.809446156024933,-5.94281959533691,-1.71189510822296,0.503157019615173,-0.941068768501282,happy,11.1270020780346,ER
9002,38,3,1.28398208731238,1,ambig,0,2.1116726398468,1.59508419036865,2.3035147190094,4.10916805267334,3.24082827568054,-3.25361061096191,0.927706241607666,happy,1.02568796462809,ER
9002,39,3,1.28398816920276,0,easy,8,5.44346046447754,1.19744062423706,2.45624303817749,7.90565299987793,3.29765248298645,-0.416198015213013,-0.800738573074341,sad,-7.0671548456377,ER
9002,40,3,1.48407856129842,1,ambig,2,1.08214473724365,-1.2327835559845,-1.16978788375854,-1.07964527606964,-1.32022631168365,1.70328664779663,1.08857989311218,happy,-15.2021248411738,ER
9005,1,1,2.18531879363648,0,ambig,-1,-0.966078579425812,-1.55400156974792,-0.0327833890914917,-3.49710941314697,-0.375760793685913,-2.20915269851685,0.849757552146912,sad,30.2609125401547,ER
9005,2,1,1.88427492023935,1,ambig,2,-1.62332630157471,-1.53182911872864,-2.07935404777527,-0.197288751602173,0.330665081739426,0.454251080751419,-2.05991101264954,happy,-12.0894200570008,ER
9005,3,1,2.68472788245486,0,ambig,-2,0.930728316307068,-0.704572975635529,-0.048456072807312,-1.96281921863556,0.798516392707825,0.133405521512032,1.72622311115265,sad,-15.1893414476228,ER
9005,4,1,1.08389570313109,1,easy,10,-2.97359299659729,-0.306609302759171,-1.33290004730225,-1.57287216186523,-0.967837452888489,-0.689967155456543,-0.688995957374573,happy,-9.72725705134975,ER
9005,5,1,1.38409492895951,1,easy,11,-3.83029985427856,-0.456897139549255,-1.9079657793045,-0.960566520690918,-0.946682035923004,-1.87062478065491,-2.21638679504395,happy,-13.5986372126137,ER
9005,6,1,1.58418973323658,0,ambig,-3,-1.31034922599792,-1.7102917432785,-0.627531409263611,-2.53464698791504,-0.727031230926514,-0.116600155830383,-0.449652284383774,sad,34.3508231600954,ER
9005,7,1,1.28404258513854,1,easy,8,-0.787813484668732,0.598382592201233,0.139084219932556,-2.93742179870605,-1.33387637138367,-0.250346541404724,1.85667407512665,happy,35.5408447823229,ER
9005,8,1,2.28451014432373,0,ambig,2,-0.0666321963071823,-0.938392519950867,-0.570347428321838,1.12078332901001,-0.144237384200096,0.577619671821594,0.544821858406067,sad,20.0666667650152,ER
9005,9,1,1.18394310526962,1,easy,7,0.114750921726227,0.705937385559082,2.69987821578979,-2.47197389602661,1.47712659835815,-0.516837239265442,-0.147574961185455,happy,10.9843556512885,ER
9005,10,1,2.08439481305805,1,easy,8,3.04901885986328,0.0263262540102005,2.74225854873657,2.73007917404175,1.47578954696655,-0.755223155021667,1.58309125900269,happy,15.2252549131766,ER
9005,11,1,1.18396401238766,0,easy,7,0.627395868301392,4.22674942016602,1.0115555524826,2.18919372558594,0.624530792236328,1.20581984519958,0.224233001470566,sad,-9.6731461603813,ER
9005,12,1,1.08400365988604,1,easy,10,-0.633098900318146,4.07894897460938,0.0272520482540131,-1.69068074226379,-0.172161370515823,-0.0944216549396515,1.07471513748169,happy,-15.799967563518,ER
9005,13,1,2.38459898056892,0,ambig,1,-0.246916800737381,-0.967739284038544,1.43201816082001,-0.886575222015381,0.305128484964371,-0.189643681049347,-2.30573701858521,sad,-34.9598368631036,ER
9005,14,1,1.38406451860601,1,easy,7,0.225123047828674,0.31097674369812,-0.459425806999207,0.96616530418396,-0.625425696372986,-0.884988009929657,-1.49020349979401,happy,9.84496451609836,ER
9005,15,1,0.783708641444065,0,ambig,1,-1.81474757194519,-5.7061824798584,-2.61122488975525,-4.19364976882935,-3.83556771278381,-1.42078530788422,-1.73706698417664,sad,19.0470070543639,ER
9005,16,1,3.68520646539321,0,ambig,4,0.42878058552742,-0.993821263313293,-1.65519297122955,0.109321594238281,-0.175979554653168,0.452023953199387,0.237893521785736,sad,6.5821035434346,ER
9005,17,1,1.6842021634686,0,ambig,4,-1.12707209587097,-1.31520164012909,-0.8040571808815,-2.464430809021,0.0591652095317841,-1.86066901683807,-0.309084534645081,sad,-4.03547591934228,ER
9005,18,1,1.6841846775153,0,easy,8,-1.06253063678741,-0.611164689064026,-1.31332802772522,-1.03376948833466,-0.00811752676963806,0.607573986053467,0.999983429908752,sad,-24.036282727376,ER
9005,19,1,1.6842021634686,0,easy,8,-0.291195333003998,-1.46521425247192,-1.28648817539215,1.40430903434753,-0.334253489971161,-0.518081903457642,-1.5964834690094,sad,8.34416102920186,ER
9005,20,1,0.983836136851153,1,ambig,-1,2.6384072303772,-1.21751356124878,2.94151401519775,4.69349241256714,0.0285083502531052,1.91536426544189,0.583890020847321,happy,11.7677426962962,ER
9005,21,1,4.08541584067711,0,easy,12,-1.10130929946899,-1.95453667640686,-1.81158113479614,-1.82189345359802,-0.300253719091415,-1.02203774452209,-0.299103170633316,sad,7.4870693486144,ER
9005,22,1,3.28506893456947,0,ambig,0,-0.793201327323914,-1.161501288414,0.359714508056641,0.000574231147766113,-0.347407281398773,1.37808084487915,-0.998763084411621,sad,2.29858632432433,ER
9005,23,1,1.28408706028054,1,easy,8,-2.63541698455811,1.13864922523499,-2.89110279083252,-1.25844120979309,-1.39077425003052,-2.28751850128174,-0.290501952171326,happy,-10.2143822062859,ER
9005,24,1,1.18396781368185,0,easy,11,0.116956561803818,-4.46331596374512,-0.328807771205902,1.76585638523102,-0.344023704528809,-0.00616455078125,0.765440404415131,sad,-42.4934526103148,ER
9005,25,1,0.983869968369447,1,ambig,-1,0.319872438907623,-0.628732323646545,-1.6332141160965,3.14261388778687,0.267859518527985,-0.33003893494606,2.48099780082703,happy,-0.554790594607631,ER
9005,26,1,0.983872629275368,0,easy,5,0.576208233833313,-1.08701848983765,-1.37735199928284,-1.73738169670105,-0.111429065465927,0.984593987464905,-0.740811169147491,sad,-1.53981057587134,ER
9005,27,1,0.883865900984659,1,ambig,-4,0.950648546218872,1.3935821056366,-0.591675698757172,1.34893846511841,0.822451710700989,-0.404330968856812,2.61282896995544,happy,22.4167783288857,ER
9005,28,1,4.08541698106538,0,ambig,0,-0.751939058303833,-1.44336664676666,0.565636813640594,-1.07668793201447,-1.37984144687653,-1.18042397499084,0.657337725162506,sad,-10.3207113975151,ER
9005,29,1,1.5841798498717,1,ambig,1,-0.208204746246338,-0.78117561340332,-3.6303596496582,-0.356097817420959,-0.20633265376091,-1.19174790382385,-1.27073764801025,happy,12.7778568865031,ER
9005,30,1,2.58464512828039,1,easy,7,-0.0347229242324829,-1.43832588195801,0.127089530229568,0.955362856388092,-0.40150198340416,-1.22752285003662,-1.10387253761292,happy,-7.06037468035527,ER
9005,31,1,2.0843598411515,1,ambig,0,1.04490995407104,-2.25474786758423,1.537189245224,1.94463241100311,1.24217867851257,1.29138123989105,-3.50633311271667,happy,-12.0716696181217,ER
9005,32,1,1.88430685111055,1,easy,6,0.453196913003922,1.88458132743835,1.63308930397034,-0.955448150634766,-0.56672728061676,-0.287912160158157,-0.355554699897766,happy,-0.658388736805354,ER
9005,33,1,4.28552775077804,1,ambig,6,1.97961103916168,1.85526657104492,0.910707116127014,1.10654711723328,0.70670610666275,-0.094419538974762,0.128938227891922,happy,15.8635665687499,ER
9005,34,1,1.28400001064364,0,ambig,0,-2.26077103614807,-1.15011644363403,-1.10739827156067,-3.7736349105835,-1.61248874664307,-0.967332601547241,-2.66205549240112,sad,6.93713349833471,ER
9005,35,1,2.18448669033859,0,ambig,-1,0.78312349319458,1.7109147310257,1.02288854122162,2.49411630630493,1.10006833076477,2.00073385238647,-0.859379529953003,sad,-4.84088710652764,ER
9005,36,1,1.78422371680665,0,easy,5,-0.271733701229095,-1.65912735462189,-1.23812592029572,-0.0951292514801025,0.414281994104385,-1.22757613658905,1.35081720352173,sad,22.2648997829159,ER
9005,37,1,1.68422535136312,0,easy,4,-0.531230330467224,3.62037992477417,0.18634894490242,-1.48776364326477,-1.00490021705627,-0.266963869333267,-1.37140929698944,sad,-3.67462936199683,ER
9005,38,1,2.78472700815723,0,easy,7,0.483189225196838,0.0919547826051712,0.138624548912048,0.233541667461395,0.795779168605804,1.39501523971558,-0.420848309993744,sad,4.4892439679244,ER
9005,39,1,1.58415248055354,1,easy,3,-0.732787847518921,-0.824233412742615,-1.26233386993408,4.36572933197021,-1.0603061914444,-0.763477444648743,2.43355917930603,happy,-24.3461233452746,ER
9005,40,1,4.78574157357616,1,ambig,9,0.497472941875458,1.70618319511414,-0.0667085647583008,-0.25809770822525,0.771592140197754,-0.0249612331390381,2.96250557899475,happy,-19.1502914318908,ER
9005,1,2,1.28491954370785,1,ambig,0,-1.83212018013,-4.96176338195801,-0.102178275585175,-0.562752246856689,-1.39816749095917,-4.09980869293213,3.68319368362427,happy,34.7354356504759,ER
9005,2,2,2.1844969538329,1,ambig,-1,-0.156576946377754,2.07809138298035,-0.373336434364319,1.79247331619263,0.0781925022602081,1.02858996391296,-0.499581724405289,happy,23.4662474870254,ER
9005,3,2,1.5841779492246,0,easy,5,0.347241818904877,-0.323180913925171,-0.562620759010315,-0.794343233108521,0.043993815779686,2.15502524375916,0.972736477851868,sad,10.0389113737775,ER
9005,4,2,1.58415932288307,0,ambig,3,-0.0230687856674194,-1.28258061408997,0.466508477926254,-2.47890067100525,-0.170008599758148,-1.37117648124695,-3.15989065170288,sad,-17.2400286354925,ER
9005,5,2,2.88482154634367,1,easy,8,-1.75997519493103,0.03531414270401,-1.66842603683472,-3.62872576713562,-1.65981316566467,-2.45918655395508,0.160233914852142,happy,-38.6333466109459,ER
9005,6,2,3.58517921011387,1,ambig,-5,0.926792442798615,-1.49457764625549,-0.78565114736557,-1.01803779602051,0.149518698453903,-0.108828365802765,1.00466907024384,happy,-9.60858766174631,ER
9005,7,2,1.58418517168355,1,easy,9,-0.89573872089386,-2.32703042030334,-0.73737359046936,-1.43145549297333,-0.971040844917297,-0.594748258590698,0.222040832042694,happy,6.31625873875037,ER
9005,8,2,5.38603434925454,1,easy,13,-0.853173136711121,0.22196301817894,-0.616664290428162,1.14350235462189,-0.630219221115112,-3.16369152069092,-1.67764735221863,happy,10.572631718605,ER
9005,9,2,1.28399240805525,1,easy,12,-0.107934415340424,0.290931671857834,-0.515289783477783,-1.46247839927673,-0.755343854427338,-1.63295257091522,-0.836250782012939,happy,-5.51413644598113,ER
9005,10,2,1.28400609271434,1,ambig,0,1.4348156452179,0.354493737220764,0.736668765544891,0.0765129327774048,-0.00948809832334518,-0.593171894550323,1.02533316612244,happy,16.9560442949435,ER
9005,11,2,1.98434322949592,0,ambig,-1,0.953449368476868,2.17491745948792,-0.190446704626083,1.49799513816833,1.34246051311493,0.509100079536438,3.42884206771851,sad,36.5934022295545,ER
9005,12,2,1.48414081058037,0,ambig,-2,1.65623116493225,3.34771299362183,0.0677921772003174,3.54346060752869,0.656375288963318,-0.508000314235687,3.68095684051514,sad,-5.13921167509622,ER
9005,13,2,1.08389304222516,1,ambig,2,-1.02965545654297,-1.22553753852844,-0.28912878036499,0.420234322547913,1.67460823059082,-2.03262782096863,-1.25026571750641,happy,34.2395532946558,ER
9005,14,2,0.883787974453782,1,ambig,-4,-1.31832838058472,-1.24196135997772,-0.230598449707031,2.13083171844482,0.0333938896656036,-2.72182512283325,1.6380136013031,happy,34.6545249336029,ER
9005,15,2,4.98585614458298,0,ambig,9,-0.368705451488495,1.2766432762146,0.767356753349304,-1.2870454788208,0.319314807653427,0.336755663156509,0.990442037582397,sad,5.11862795518001,ER
9005,16,2,1.78426477078386,0,easy,7,0.0688442662358284,-0.143540695309639,0.344256579875946,-0.491987228393555,-0.111975036561489,0.445363342761993,-0.151793673634529,sad,-33.651466680365,ER
9005,17,2,1.28399887025537,1,ambig,0,-0.24768078327179,-0.151135370135307,1.80440819263458,1.12882661819458,-1.43608808517456,2.84456586837769,-0.384357810020447,happy,-28.2540025529118,ER
9005,18,2,4.88583078995075,0,ambig,8,0.619496405124664,1.04372811317444,-1.38390600681305,-0.698653042316437,0.164515256881714,-0.0743608400225639,-1.42885136604309,sad,12.5711331190713,ER
9005,19,2,1.28403650306785,0,easy,4,-0.3537278175354,-1.09736013412476,1.68844521045685,-4.04464769363403,-1.40063643455505,-0.563697099685669,-3.10226011276245,sad,-4.33748874375693,ER
9005,20,2,1.38408960714767,1,easy,9,0.724788427352905,0.626745343208313,-1.78737783432007,-1.29141974449158,-0.311020374298096,-1.28130769729614,-2.59838151931763,happy,-15.8660522865621,ER
9005,21,2,4.08541888171246,0,easy,12,-1.55069017410278,-1.24246096611023,-0.421240031719208,-0.229425117373466,-0.369381874799728,-0.954224348068237,-1.69156539440155,sad,10.862387915623,ER
9005,22,2,1.0839340962024,1,ambig,-2,0.390877902507782,1.38274562358856,1.75542712211609,-4.21333026885986,1.58519279956818,-1.32395672798157,0.825764060020447,happy,16.8990887358804,ER
9005,23,2,2.78477224355805,0,easy,15,0.0437164083123207,-1.96347224712372,1.96765470504761,-1.06275987625122,1.15042042732239,0.682483971118927,1.39988946914673,sad,27.6237459857507,ER
9005,24,2,2.18443195170229,1,easy,17,-0.13095611333847,-0.845414876937866,1.19999432563782,2.82762241363525,0.0320458561182022,-1.32884454727173,-0.394549876451492,happy,4.54050918773164,ER
9005,25,2,1.08395880461461,1,easy,10,2.35293436050415,-0.161278083920479,0.551541924476624,1.4138355255127,0.132717937231064,2.08291554450989,-0.365351855754852,happy,32.4162462891416,ER
9005,26,2,1.18400240545895,0,easy,5,0.560719609260559,-2.01587748527527,-2.45426201820374,-0.837730646133423,-0.934799909591675,2.26928043365479,-2.95458769798279,sad,28.784615015016,ER
9005,27,2,3.58518301140805,0,easy,7,0.752227365970612,1.67808449268341,-1.94127690792084,-1.39328444004059,0.567067742347717,0.804353833198547,-0.446362257003784,sad,21.6485740686332,ER
9005,29,2,1.98440671110885,0,ambig,-1,0.964494466781616,1.69644951820374,1.14850986003876,-0.109027206897736,0.877772748470306,1.56979703903198,2.74641942977905,sad,-12.68463706723,ER
9005,30,2,1.88429696774566,1,ambig,-2,0.335796236991882,1.43176126480103,-0.707290887832642,0.0480343997478485,-0.0315919741988182,0.220802783966064,0.816039085388184,happy,13.6923968863557,ER
9005,31,2,0.883843473348918,1,easy,4,-0.288076281547546,0.449140757322311,1.56486093997955,3.4642653465271,-1.47741031646729,-0.935651838779449,0.678414106369019,happy,53.0785614850275,ER
9005,32,2,0.783761479433281,0,easy,5,3.16061615943909,1.13428497314453,-1.4166396856308,0.747756063938141,1.73582434654236,-0.766417264938354,1.34284043312073,sad,-10.5443379524038,ER
9005,33,2,1.18393588281066,1,easy,7,0.196093827486038,0.154087632894516,-0.18661817908287,0.219398677349091,-0.65086442232132,0.370651185512543,-0.731864213943481,happy,19.1583087778597,ER
9005,34,2,3.98534411025577,0,ambig,3,-0.760263085365295,0.68536102771759,0.576090931892395,2.47323513031006,0.124703824520111,1.78047060966492,1.92287397384644,sad,-12.9191814255122,ER
9005,35,2,2.28451736678272,0,ambig,2,-0.372747778892517,-0.874528050422668,-1.73748683929443,-1.16030478477478,-0.169510513544083,0.14201246201992,-1.22428643703461,sad,-4.12405665215101,ER
9005,36,2,1.98438428347316,1,ambig,1,1.65802705287933,1.61446619033813,2.42637252807617,5.12939453125,1.9291033744812,1.93726086616516,2.69873452186584,happy,-3.6675384230238,ER
9005,37,2,1.58426081743789,0,easy,5,0.282279223203659,-2.35970544815063,0.947568118572235,-0.683192670345306,0.780676603317261,0.201809704303741,-2.87967109680176,sad,-31.342514586278,ER
9005,38,2,1.28400989400848,1,easy,4,-0.443921267986298,-1.48533701896667,0.126554787158966,0.371433049440384,-1.11166656017303,0.405400156974792,-1.31749582290649,happy,-11.0690357147672,ER
9005,39,2,1.9843515923431,0,ambig,1,-0.629819512367249,0.334972709417343,-0.293706685304642,-3.43335628509521,-0.977746486663818,0.25929319858551,-1.2176628112793,sad,-26.6704660547984,ER
9005,40,2,1.38412647970125,0,ambig,1,-0.597763180732727,1.63678812980652,-2.15157127380371,0.408348560333252,-2.84771203994751,-2.10727834701538,-0.331347107887268,sad,-29.909549472443,ER
9005,1,3,1.88518456993868,0,ambig,2,1.38692378997803,0.546087801456451,-0.740747332572937,-1.82445049285889,-0.0615800768136978,-0.592132091522217,0.630074203014374,sad,20.846736996714,ER
9005,2,3,0.983853622804419,1,ambig,1,1.47937798500061,2.64178943634033,-1.7332808971405,3.22924470901489,-0.242660954594612,0.803065717220306,-0.835540771484375,happy,-18.535372106539,ER
9005,3,3,0.883848034901963,1,ambig,-4,0.348586052656174,1.09885907173157,2.12440919876099,1.09492003917694,0.735319852828979,-0.250186324119568,-0.492203623056412,happy,13.5426534621104,ER
9005,4,3,1.48415411511003,0,easy,10,0.529059767723083,-1.82127773761749,0.543491721153259,-1.53786849975586,1.10916197299957,0.589186310768127,-1.11335968971252,sad,-4.237483099725,ER
9005,5,3,1.984401389297,0,easy,11,0.445704162120819,1.92852389812469,0.189196407794952,-2.25494694709778,0.748780965805054,0.686432301998138,1.44248104095459,sad,-20.2924890658393,ER
9005,6,3,1.58413309395316,0,easy,3,1.16484177112579,-0.623454928398132,-0.667916297912598,0.843778312206268,0.542428851127625,1.2665843963623,0.013654351234436,sad,16.8629926994569,ER
9005,7,3,3.88531267355283,1,ambig,-2,-0.620720267295837,-0.873184263706207,-0.308974802494049,-1.20237874984741,0.55369645357132,-0.452739775180817,2.14971017837524,happy,14.5838474468292,ER
9005,8,3,1.4840830309087,0,easy,6,0.253257572650909,0.575708866119385,-1.55783843994141,-1.8353396654129,0.91652923822403,0.625622868537903,0.93135130405426,sad,8.44901170126121,ER
9005,9,3,0.983873769663631,1,ambig,3,1.39456117153168,2.48611855506897,1.70141232013702,-2.23016452789307,1.81386733055115,-1.86236310005188,1.81792664527893,happy,0.898084031024308,ER
9005,10,3,1.68427324766989,1,ambig,-4,-0.258859694004059,1.14573383331299,-2.73109936714172,-0.116057902574539,-0.361532628536224,2.11945724487305,-0.161636412143707,happy,6.14896849491586,ER
9005,11,3,1.0838839191191,0,easy,6,0.341380804777145,1.44104945659637,-1.78193950653076,-0.978024542331696,0.177497118711472,-0.168615758419037,0.451826155185699,sad,8.58591583128835,ER
9005,12,3,0.883835490631142,1,easy,4,-0.323436617851257,-2.57299423217773,0.425143778324127,0.287194430828094,-2.5530161857605,-3.53108692169189,-1.69037580490112,happy,-2.88071977754906,ER
9005,13,3,0.883840812443012,0,easy,8,-0.685724139213562,0.352240920066833,1.73997068405151,-0.567142248153687,-0.756625890731812,1.51161646842957,1.41000258922577,sad,16.4722085567072,ER
9005,14,3,1.48408987323825,1,ambig,2,1.08264183998108,1.15118896961212,1.65198254585266,0.632854819297791,1.07275462150574,0.38733845949173,0.600606918334961,happy,31.1767639830254,ER
9005,15,3,0.983879091475487,0,easy,9,-0.139658495783806,0.410344690084457,2.64731168746948,2.39657688140869,0.681693434715271,0.496352732181549,0.700093269348145,sad,25.7337415561528,ER
9005,16,3,1.68424131679872,0,ambig,0,-2.72377586364746,-1.05200982093811,-0.224645256996155,1.52267563343048,-0.917303085327148,0.483391106128693,-1.45414841175079,sad,19.0750256774525,ER
9005,17,3,0.983840318274758,1,easy,9,0.00885951519012451,0.318846821784973,1.59714758396149,5.08334350585938,4.22643280029297,3.24411869049072,-0.69601035118103,happy,-8.9197999851092,ER
9005,18,3,1.28400837349085,0,easy,8,0.456543684005737,2.08732461929321,1.1722559928894,3.18710017204285,2.31207847595215,2.23594903945923,-0.25221586227417,sad,-6.01242867763925,ER
9005,19,3,3.18496565340635,0,ambig,-1,-0.391627222299576,4.18356800079346,0.42506730556488,-0.488835334777832,-0.101270109415054,0.529506385326385,-2.70939826965332,sad,-56.0300459237311,ER
9005,20,3,3.48512268486931,1,easy,14,-1.1802704334259,0.825490891933441,-0.0458016395568848,-0.842777729034424,0.0585565567016602,1.0691032409668,-1.66392421722412,happy,-51.0943250317368,ER
9005,21,3,1.08387745691897,0,ambig,-6,1.54415917396545,3.49608087539673,2.9284782409668,4.18178653717041,0.846545100212097,4.58584308624268,2.30289554595947,sad,-41.7738272993543,ER
9005,22,3,1.48418680624005,0,ambig,-2,0.514470458030701,-2.76862978935242,-0.563426434993744,1.55838513374329,1.11689591407776,0.321730613708496,1.56816816329956,sad,-29.0508606678495,ER
9005,23,3,0.783793030175048,1,easy,5,-0.615428566932678,-2.5995409488678,1.17743492126465,4.39528656005859,-2.2035551071167,1.29801869392395,-0.190719187259674,happy,-7.66330611740745,ER
9005,24,3,1.78424690470118,0,ambig,1,1.07284569740295,1.38074564933777,-0.870221853256226,-3.09034419059753,-0.578194618225098,1.97387337684631,2.42812895774841,sad,-13.4906061787157,ER
9005,25,3,1.28413495658734,1,easy,8,-2.9426748752594,-2.9005241394043,-0.615146160125732,-3.00763034820557,-1.15231251716614,-1.61539208889008,0.0265108346939087,happy,-20.6998182573762,ER
9005,26,3,1.58412321058827,1,ambig,5,0.667711734771729,2.82946300506592,0.823890268802643,-1.6032919883728,-0.464353621006012,1.19238424301147,4.12308931350708,happy,-74.4609141055563,ER
9005,27,3,1.08395082189682,0,ambig,-2,1.47037279605865,1.42342340946198,0.350612580776215,0.63609391450882,1.29854583740234,-0.293798863887787,1.6471209526062,sad,-15.641355590306,ER
9005,28,3,1.48411838294467,1,easy,6,-1.35216498374939,-0.290245682001114,2.55290460586548,2.24996185302734,0.577702105045319,1.65966415405273,2.21622967720032,happy,-5.13029606154102,ER
9005,29,3,1.78424348353641,0,ambig,-1,1.64011800289154,0.922622501850128,1.67920756340027,1.76066339015961,1.06500601768494,1.99050140380859,-0.963410139083862,sad,-6.19612666036902,ER
9005,30,3,1.48412408488593,0,easy,6,1.6956639289856,3.12043046951294,1.06467604637146,-1.29517197608948,0.154479011893272,-0.662329912185669,-2.28484106063843,sad,4.34597803017558,ER
9005,31,3,0.883787974453782,0,ambig,0,-0.266004800796509,3.72229433059692,-0.535932719707489,0.152907997369766,-1.03217196464539,-1.56867122650146,-3.6775279045105,sad,42.8933554888732,ER
9005,32,3,1.58417870948341,0,ambig,-3,-0.131836235523224,-1.13556051254272,0.816222429275513,0.96561586856842,0.0484762787818909,2.57551860809326,-0.0112113058567047,sad,56.6317481638513,ER
9005,33,3,1.0839166102491,1,easy,6,-0.816994726657867,-3.54347014427185,0.792415976524353,-3.5969979763031,0.160729706287384,-1.37061512470245,-1.66802608966827,happy,30.5805948559678,ER
9005,34,3,2.18442358885505,0,ambig,-1,1.13149476051331,2.10928654670715,1.34379029273987,6.67377519607544,0.455991864204407,1.36149370670319,1.10894906520844,sad,20.3715547584338,ER
9005,35,3,2.88486564135621,0,ambig,4,-0.23286172747612,-1.96118569374084,-0.212348774075508,1.13791275024414,0.637145817279816,0.173714026808739,0.267555892467499,sad,30.8985064381241,ER
9005,36,3,1.68413297991435,1,easy,4,0.372897982597351,-2.33328247070312,-0.799440562725067,4.23390007019043,0.0787837505340576,1.01658737659454,-1.52720499038696,happy,-2.87750186898581,ER
9005,37,3,1.28396351821942,1,easy,4,-0.268445789813995,0.325767755508423,-0.172198593616486,-0.727105736732483,0.14396034181118,0.6921466588974,-0.520621418952942,happy,25.7933389572333,ER
9005,38,3,2.48456389462359,0,easy,8,-0.324404150247574,0.36658126115799,-0.370610177516937,-0.468628287315369,0.199146941304207,0.0544342994689941,-0.493029296398163,sad,15.4230207965428,ER
9005,39,3,2.88478011223702,0,easy,8,-0.24340708553791,-0.929972052574158,-0.439807653427124,0.00827831029891968,-1.09557342529297,-1.78894770145416,0.0751001834869385,sad,10.2626011359127,ER
9005,40,3,0.883854116972657,1,ambig,-4,1.64388048648834,1.04061579704285,2.23029851913452,-6.43628168106079,0.987100064754486,-1.94702577590942,-0.29272472858429,happy,27.2936201096384,ER
9006,1,1,0.984701633384309,1,easy,5,0.413676023483276,-0.865628778934479,-1.7532616853714,-3.38803339004517,-2.75871181488037,2.32488131523132,-4.07289028167725,happy,25.3042508472779,ER
9006,2,1,2.28446332934576,1,ambig,2,-1.51549351215363,-0.197640344500542,0.609261751174927,-0.890213012695312,0.117112696170807,2.6146035194397,0.542943835258484,happy,-13.4247640640252,ER
9006,3,1,1.28403188081529,1,ambig,-4,0.675466775894165,-3.10934782028198,-1.66191637516022,-3.90936088562012,1.22965395450592,-0.165184617042542,0.332634449005127,happy,16.7109948207261,ER
9006,4,1,1.58413949586285,0,easy,3,-0.920424461364746,-2.42468023300171,0.809783577919006,1.92819714546204,0.82946765422821,1.44590163230896,0.0542938709259033,sad,7.04316199026294,ER
9006,5,1,1.38404431109454,1,ambig,3,-0.584151029586792,3.30644273757935,0.0896159410476685,1.82792735099792,-0.0573064088821411,2.27700757980347,-0.726617932319641,happy,2.73703256883957,ER
9006,6,1,1.48412516492927,1,easy,10,1.00319147109985,0.259235620498657,-0.183216691017151,-4.24319267272949,0.214360982179642,-0.953166604042053,-4.51372385025024,happy,-14.6086158619219,ER
9006,7,1,2.08450499168844,0,easy,4,0.358166813850403,3.971031665802,-0.222028151154518,-0.701562643051147,1.97582077980042,-1.12230432033539,3.96065950393677,sad,-13.8320012275892,ER
9006,8,1,1.98438916581422,1,ambig,-1,-0.269812673330307,1.14397287368774,0.480751007795334,-0.0113201141357422,0.110653504729271,0.11471152305603,-0.410390198230743,happy,5.809226810785,ER
9006,9,1,1.38404963292663,0,easy,9,-0.653978228569031,-0.508831441402435,1.92727708816528,0.641871452331543,-1.30147349834442,2.57826995849609,-0.374397993087769,sad,-16.0887056321409,ER
9006,10,1,4.68568575417773,0,ambig,6,0.0707713663578033,-0.40216201543808,2.69846415519714,3.26244449615479,0.380903631448746,-1.40098488330841,1.35083866119385,sad,44.1243475811711,ER
9006,11,1,1.08398991436792,1,easy,6,0.873439610004425,2.5316276550293,1.11506998538971,-2.9173150062561,-1.52982044219971,4.55806446075439,3.63998126983643,happy,-40.4269398082412,ER
9006,12,1,1.28399158694373,1,easy,8,-0.435949683189392,0.269980490207672,0.532308340072632,-4.00751113891602,-1.97186923027039,0.397014141082764,-3.19299745559692,happy,35.2289760293619,ER
9006,13,1,1.28398512471902,1,easy,8,-0.547806978225708,0.0428437888622284,-3.32512784004211,-5.78253698348999,0.808625757694244,-2.14507222175598,1.2743467092514,happy,-45.2745438044024,ER
9006,14,1,1.48412744571446,1,ambig,2,0.433710217475891,2.88412189483643,-0.0693562030792236,5.79894065856934,-0.802468657493591,-0.489867448806763,0.208685755729675,happy,-0.397409082061333,ER
9006,15,1,1.58411288670237,1,easy,9,-1.34976720809937,0.325330436229706,2.45902347564697,-1.23106849193573,-0.630291998386383,1.076495885849,-1.00555694103241,happy,-37.0972952934917,ER
9006,16,1,1.48412858610706,0,ambig,-2,-3.21968412399292,-0.699285924434662,0.384053826332092,-2.04475736618042,-1.76084887981415,1.74620509147644,-0.598599195480347,sad,-1.76986896370701,ER
9006,17,1,2.08443960917987,0,easy,12,0.388538360595703,-1.96369791030884,-1.41106224060059,2.71455645561218,-0.935539960861206,0.232098042964935,-0.00185483694076538,sad,6.99500304046175,ER
9006,18,1,2.18446420364674,1,easy,9,-0.23317751288414,-0.281048446893692,0.450591713190079,0.632909953594208,1.48678863048553,-0.155229657888412,1.05329823493958,happy,7.93984996270506,ER
9006,19,1,2.08438372994286,1,easy,12,-0.0531330704689026,-0.211166739463806,-1.61144292354584,-3.84682965278625,0.500291705131531,-2.01188516616821,0.277900815010071,happy,-6.00276917991074,ER
9006,20,1,2.58467814129693,0,ambig,-3,-1.09890568256378,-1.36723446846008,-0.20956689119339,2.42770767211914,-2.01038694381714,-3.22224450111389,-0.343552112579346,sad,-2.22668669580816,ER
9006,21,1,1.88431705498934,0,ambig,-2,3.21956467628479,1.09848380088806,-0.0661729127168655,0.46763813495636,-0.0127700865268707,2.13276934623718,-0.0716179609298706,sad,-3.71866973764033,ER
9006,22,1,4.58565925905651,1,ambig,9,-1.46584296226501,-0.610496938228607,0.768795847892761,-0.25337016582489,-1.66838884353638,0.659463107585907,-1.63908541202545,happy,24.6447129472537,ER
9006,23,1,1.38409638902289,0,ambig,1,0.446881890296936,-0.249596536159515,-1.98926675319672,-3.02887845039368,-0.328949093818665,2.16684103012085,0.708150386810303,sad,-26.1197046727065,ER
9006,24,1,1.18402971406934,1,easy,7,-1.05266714096069,-3.46019744873047,-0.973694324493408,1.59376990795135,-0.474952280521393,1.00297832489014,-1.94427037239075,happy,42.9477452021669,ER
9006,25,1,1.18401945053606,1,easy,9,-0.873363137245178,-0.0105189681053162,2.16788005828857,0.923783302307129,2.18861603736877,-1.0103862285614,-0.174999952316284,happy,13.6243174555245,ER
9006,26,1,1.28405506879798,1,ambig,-4,-2.63763523101807,1.41463899612427,-3.73849534988403,-3.02577018737793,0.536214828491211,-2.46659851074219,-0.101539850234985,happy,-5.24192622350595,ER
9006,27,1,1.98438042280435,0,easy,3,-0.34492614865303,-0.413397490978241,-0.325857937335968,-2.7109899520874,-2.15660953521729,-0.443196296691895,-0.231177508831024,sad,35.2412559571448,ER
9006,28,1,1.08391921002723,0,easy,6,-0.848302662372589,1.27540242671967,3.38166379928589,5.07006311416626,0.948559641838074,3.27839541435242,0.800011157989502,sad,4.84730617570371,ER
9006,29,1,1.48414873304284,0,easy,10,0.635000646114349,2.27165842056274,0.778095722198486,1.39387941360474,-0.0449299216270447,-1.00330853462219,1.54292321205139,sad,-20.009477804428,ER
9006,30,1,1.08391654911119,1,easy,6,1.27362549304962,3.6220121383667,2.6090247631073,3.91572546958923,2.35123586654663,2.53390717506409,0.172311782836914,happy,15.5956698720829,ER
9006,31,1,1.68421122655687,0,ambig,0,-0.929623007774353,1.07248759269714,0.948997616767883,-3.67024064064026,-1.2855943441391,0.465317845344543,0.407418012619019,sad,-3.10078400290424,ER
9006,32,1,1.384070920255,0,ambig,1,1.55371081829071,4.08379888534546,0.805636405944824,-0.389284193515778,0.20213258266449,2.05840563774109,0.154367804527283,sad,27.3758196777449,ER
9006,33,1,2.18451286039732,1,ambig,-3,0.259822726249695,-0.677779674530029,0.0103408694267273,-4.13869285583496,1.31803178787231,3.78962230682373,0.0446001291275024,happy,-22.0650609388373,ER
9006,34,1,5.08588372633164,0,ambig,10,-0.705180168151855,-0.669416189193726,0.0792701244354248,-1.34456443786621,0.795821070671082,-0.100415468215942,0.607242584228516,sad,-19.3841434051,ER
9006,35,1,1.08395000062723,1,easy,10,-2.76481819152832,1.89388287067413,-0.597438097000122,0.382649898529053,1.12538409233093,4.22496747970581,3.14494228363037,happy,12.1117898671977,ER
9006,36,1,1.08391274780251,1,ambig,-2,1.21492338180542,-3.10094118118286,0.406449615955353,2.30803537368774,-0.312588214874268,-0.552589535713196,-0.541792035102844,happy,18.8116424165813,ER
9006,37,1,1.88440220430289,0,ambig,-2,0.133667171001434,1.49958109855652,0.593457818031311,-1.10250687599182,0.279250085353851,2.25005412101746,2.57178521156311,sad,14.1506595143726,ER
9006,38,1,1.98440893261915,0,ambig,1,-2.119704246521,-3.50078725814819,-0.711766242980957,-1.79997313022614,-1.36969256401062,-0.685348093509674,-0.134567677974701,sad,0.829041071105763,ER
9006,39,1,1.78424456403366,0,ambig,-3,1.11965906620026,-0.620554208755493,-0.233737349510193,2.04669451713562,0.164073288440704,-1.17628479003906,2.56436443328857,sad,21.0933457859878,ER
9006,40,1,1.3840260648131,1,easy,7,2.12435293197632,2.84225177764893,-0.108487367630005,-0.823240220546722,0.364850401878357,2.32853507995605,3.16000652313232,happy,5.03345461950586,ER
9006,1,2,1.5850233001213,0,easy,7,-2.00509166717529,-4.09700489044189,-2.96258068084717,-2.16161513328552,-0.616057753562927,-2.85671091079712,-3.63427448272705,sad,-4.28152004673755,ER
9006,2,2,1.28401135374864,0,ambig,-4,-1.34193098545074,2.6643648147583,1.00454759597778,2.36457633972168,-1.55223870277405,-2.41536235809326,-0.265483617782593,sad,42.7134191974693,ER
9006,3,2,1.48416089723048,0,ambig,2,-0.660263001918793,-0.178289711475372,-0.0463792234659195,1.14875960350037,1.46643400192261,-4.06268072128296,-0.408730506896973,sad,-23.223133574622,ER
9006,4,2,1.08393213447662,0,easy,6,-1.34530186653137,5.27218103408813,-0.563480734825134,-2.17830634117126,-2.96084570884705,1.28418135643005,-1.320317029953,sad,-10.2209592845716,ER
9006,5,2,2.3845263170299,0,ambig,3,-0.276839733123779,-1.77179193496704,-0.776227355003357,-2.53942775726318,-0.20942485332489,-1.06510865688324,3.66892147064209,sad,10.3929916803136,ER
9006,6,2,1.88431059276467,1,ambig,-2,-0.187177315354347,-1.19504976272583,-0.638821542263031,-1.72104668617249,0.500763475894928,1.22608935832977,-2.13448119163513,happy,5.27314905967489,ER
9006,7,2,1.18395900972869,0,easy,7,1.17403995990753,-1.52690243721008,-0.372300773859024,2.36970901489258,3.05109357833862,1.36279237270355,-1.07625985145569,sad,37.8559098162292,ER
9006,8,2,1.28405430853626,1,ambig,4,0.877071976661682,-0.804305553436279,-0.845340728759766,0.833862245082855,0.931742131710052,-3.74598479270935,-1.68360936641693,happy,0.761026778924715,ER
9006,9,2,2.08439855504656,1,ambig,4,-0.584629833698273,-1.96914887428284,-0.137485176324844,0.629570126533508,0.328740835189819,-0.776900112628937,1.121502161026,happy,-5.80293394633961,ER
9006,10,2,1.58414443756408,0,easy,9,-0.102009236812592,2.79679155349731,1.45570814609528,1.99306309223175,1.24865555763245,1.478684425354,1.57487881183624,sad,16.1615972974442,ER
9006,11,2,1.08393441526179,1,easy,10,-2.23371481895447,-1.68390130996704,0.0204560309648514,-3.3406457901001,-3.55622339248657,-4.20280933380127,-7.03371095657349,happy,-23.3292074228295,ER
9006,12,2,1.08393935696303,0,easy,10,0.841284334659576,-0.903712332248688,3.01845049858093,3.89979934692383,-1.42589056491852,-1.22782421112061,-2.82094693183899,sad,47.4480360611389,ER
9006,13,2,1.28400451139309,1,easy,8,-0.99276864528656,-1.7653214931488,-0.485862851142883,3.33206605911255,-1.37560307979584,0.806213736534119,4.00195741653442,happy,-33.0781565406087,ER
9006,14,2,1.58412238997397,1,easy,5,-1.03271353244781,-2.91663670539856,0.76194429397583,3.18587756156921,-0.557949841022491,-1.22312378883362,1.00869059562683,happy,-26.3834668693257,ER
9006,15,2,1.98434050906364,0,easy,9,0.276402473449707,-1.64088344573975,-1.85222959518433,-2.00690245628357,-0.770892083644867,-1.27924430370331,-0.83994460105896,sad,-7.93004931560299,ER
9006,16,2,1.58418739235168,1,ambig,-1,0.812836408615112,0.888125538825989,0.702227056026459,-1.30223977565765,0.0920337438583374,-1.61423802375793,1.08382177352905,happy,-5.38177302047106,ER
9006,17,2,1.28408281835105,1,easy,4,-2.30934715270996,2.14463663101196,0.0803056955337524,-1.35630750656128,1.76861357688904,-3.68984341621399,1.5988712310791,happy,-37.1909120925108,ER
9006,18,2,4.48561945935506,1,ambig,4,-1.64290249347687,0.645434141159058,1.00440299510956,-1.03465712070465,0.23345211148262,-1.1776270866394,0.790623903274536,happy,18.5478343355723,ER
9006,19,2,2.58465457318337,1,easy,7,0.739721417427063,0.591270685195923,-0.381482303142548,2.03207778930664,0.993805110454559,3.01427221298218,-0.178520202636719,happy,-30.9009697173507,ER
9006,20,2,4.88583681818304,0,ambig,12,2.25610089302063,1.34528279304504,1.74469876289368,-2.03545069694519,2.17143154144287,-0.876641035079956,1.70130276679993,sad,38.1333577069479,ER
9006,21,2,1.38407472156362,1,easy,11,1.88664603233337,0.305902421474457,0.595441818237305,-0.0978997945785522,-0.570788264274597,0.257550299167633,-1.42838263511658,happy,-24.0961034875471,ER
9006,22,2,1.48413808937866,0,ambig,6,2.21317315101624,0.686464846134186,3.1789174079895,-0.911763429641724,0.725251734256744,1.47172093391418,1.51116991043091,sad,-4.19584250797627,ER
9006,23,2,1.48413276754655,0,easy,10,2.5097279548645,-2.93701648712158,0.881010055541992,3.72969245910645,2.53397297859192,2.04714679718018,3.47698593139648,sad,-6.99701930669969,ER
9006,24,2,1.48411642191942,0,easy,10,-0.480208992958069,0.105742007493973,-2.23384714126587,1.0944619178772,1.50742852687836,2.62192368507385,0.797234117984772,sad,24.0111316312821,ER
9006,25,2,1.28394939241784,1,easy,4,0.703196883201599,0.597338199615479,0.00341548770666122,1.71374177932739,-1.53088188171387,1.04195988178253,0.0901147127151489,happy,23.7591753500232,ER
9006,26,2,3.28504340904399,1,ambig,0,-0.551640868186951,0.644588589668274,0.671485781669617,-1.91434812545776,-1.07604050636292,-1.77721452713013,-1.57938003540039,happy,4.21824556762833,ER
9006,27,2,1.48407802870216,1,easy,10,0.486158072948456,1.36000323295593,-0.461430668830872,1.55653667449951,0.213216364383698,-0.0971143245697021,-0.530290365219116,happy,-18.5335218470007,ER
9006,28,2,0.983853941557925,1,ambig,-3,-0.958692312240601,-1.17469131946564,0.0919281616806984,-4.04535675048828,-0.279684662818909,2.58938670158386,-0.970773458480835,happy,30.6275713878714,ER
9006,29,2,3.38503075068624,0,ambig,-1,-1.10661637783051,-0.581999480724335,-0.168415129184723,-0.517888247966766,-1.02346956729889,0.90447723865509,-0.599303603172302,sad,-9.80883476927804,ER
9006,30,2,4.98587091592151,1,ambig,9,-1.49197471141815,-1.55064654350281,1.18055403232574,-0.25254088640213,-1.6443555355072,0.496160984039307,-0.917518198490143,happy,-4.84591532483456,ER
9006,31,2,1.28401553518816,1,ambig,0,-3.39357757568359,0.144375890493393,-1.26470756530762,0.93463933467865,-2.85711026191711,-2.57762765884399,-2.74193739891052,happy,-13.1026576622027,ER
9006,32,2,1.28403378146962,1,easy,8,2.42734980583191,-0.617577850818634,2.53885626792908,2.43197965621948,0.13875538110733,0.339481592178345,-0.84809672832489,happy,5.18025862682513,ER
9006,33,2,2.58469220613887,0,easy,7,2.17242217063904,2.22397994995117,0.348550260066986,-1.99903535842896,2.19693374633789,6.89877414703369,3.51271200180054,sad,-14.9523565956026,ER
9006,34,2,1.18399930360022,1,ambig,3,1.15220856666565,0.944522857666016,-0.195442706346512,2.95330429077148,2.53776359558105,1.47442579269409,0.14380070567131,happy,30.8633268460659,ER
9006,35,2,2.08443200656257,1,ambig,0,0.28462141752243,3.55359768867493,-0.59135365486145,0.722183048725128,0.215497016906738,0.695475280284882,0.549166023731232,happy,17.8047593069248,ER
9006,36,2,0.983867626269046,1,easy,7,2.55700826644897,2.22819995880127,1.26583325862885,1.55675911903381,-0.438547313213348,-1.10867190361023,-1.05411458015442,happy,-0.0999821426809494,ER
9006,37,2,1.88431173315729,1,ambig,-2,0.796811938285828,-3.0405707359314,1.95934402942657,2.34391331672668,1.47183728218079,-4.31914615631104,1.14998400211334,happy,5.74535456813339,ER
9006,38,2,5.08589056868715,1,ambig,10,-0.928207874298096,-0.303096085786819,0.515411615371704,-3.25780630111694,0.148151159286499,0.125987529754639,-1.22054195404053,happy,15.5768454563677,ER
9006,39,2,1.68426140383087,1,easy,4,0.613431751728058,0.883282840251923,-1.51714205741882,5.52340459823608,1.67623460292816,-0.874135136604309,-3.08165597915649,happy,-15.2239734358623,ER
9006,40,2,1.78423810180891,1,ambig,-3,-0.759014189243317,-0.322884410619736,-0.655342817306519,-0.266407310962677,-1.18292224407196,-2.45891356468201,-4.02170181274414,happy,11.4391188798044,ER
9006,1,3,1.384863873237,1,ambig,1,0.83540666103363,2.90631151199341,0.800265848636627,-0.355067670345306,0.0430545806884766,1.64406490325928,1.34862160682678,happy,-8.95458856387545,ER
9006,2,3,2.68470159537122,0,ambig,2,1.85933446884155,-3.46139478683472,-2.39167904853821,4.70364809036255,0.306767642498016,-1.88705503940582,-0.245433330535889,sad,44.3370641457064,ER
9006,3,3,1.48409019288981,1,ambig,-2,-1.32345700263977,-1.441645860672,2.74854159355164,0.457122206687927,-0.410270124673843,0.809376955032349,1.51533460617065,happy,-47.6885531224724,ER
9006,4,3,0.983851280641876,1,ambig,-3,-0.483441531658173,-2.98366594314575,-0.74183988571167,-2.84398078918457,-0.816739797592163,-0.0344036817550659,-4.70270252227783,happy,-12.3762661695677,ER
9006,5,3,1.98431808134268,0,easy,5,-0.602255344390869,-0.745810687541962,-3.92378306388855,-2.6304624080658,-0.862721741199493,-0.446771740913391,1.31018435955048,sad,-52.6210676767408,ER
9006,6,3,2.08440577753297,0,ambig,4,0.312886416912079,-0.139135017991066,1.06012964248657,3.06625556945801,2.25142431259155,0.480082035064697,0.856349945068359,sad,5.86843100504848,ER
9006,7,3,2.4846128728276,0,ambig,0,-0.28689432144165,-0.452850878238678,-0.548432111740112,1.7348438501358,-0.990388810634613,-3.00978422164917,-1.8059014081955,sad,27.6030620108751,ER
9006,8,3,1.68424619859633,0,easy,8,0.34256386756897,-0.256728678941727,0.595342874526978,1.29526519775391,0.433486104011536,1.17610669136047,-0.547307014465332,sad,32.8855949305678,ER
9006,9,3,1.5841904333986,1,easy,3,-0.902374029159546,-0.211924135684967,-0.107274144887924,2.16044282913208,-0.197308123111725,-1.22779035568237,-0.102643847465515,happy,14.0480245331458,ER
9006,10,3,1.08393897683216,1,easy,6,1.21812415122986,1.18259882926941,-3.11507630348206,-2.50222897529602,1.72306156158447,-4.11272382736206,-0.108906507492065,happy,10.7630150908914,ER
9006,11,3,2.18447788835785,0,ambig,-1,0.31353086233139,-1.51507520675659,-0.961184859275818,2.88335037231445,-1.19923949241638,-0.852671265602112,-1.77336192131042,sad,-10.1327731807555,ER
9006,12,3,1.18391909598799,0,easy,7,3.0387909412384,-0.759798049926758,-1.51727223396301,2.92215085029602,0.31741201877594,-2.04092073440552,-1.28901600837708,sad,-7.11773288967805,ER
9006,13,3,1.38405951632909,0,easy,9,1.28803336620331,-1.32159972190857,-0.685573399066925,-1.12811613082886,0.0724145472049713,-3.37176251411438,-0.864009737968445,sad,-8.66270041213664,ER
9006,14,3,2.68472972505515,1,ambig,2,-0.633282244205475,-0.0292985141277313,-1.06892848014832,-3.16599130630493,-0.47789067029953,-0.701800584793091,0.720768451690674,happy,11.6243702556065,ER
9006,15,3,1.38406103685254,1,easy,7,2.48827433586121,2.54056215286255,-1.98905169963837,-1.69978332519531,0.939883470535278,0.833192884922028,2.78120040893555,happy,19.9345885624937,ER
9006,16,3,1.48414379134159,0,easy,10,-0.663303971290588,-1.17813539505005,-1.74393630027771,-1.98168301582336,-0.732285618782043,-0.938501060009003,0.608618378639221,sad,-11.500898537084,ER
9006,17,3,1.68422643179142,0,easy,12,0.176295787096024,-3.73445558547974,-1.28805685043335,-2.57462692260742,-1.80520391464233,-3.54997301101685,-1.53175377845764,sad,29.4782824591869,ER
9006,18,3,1.0838861386421,1,easy,6,-3.12735676765442,0.981807112693787,-3.83796286582947,1.90887248516083,-0.696895599365234,2.49719524383545,-1.29545378684998,happy,-20.0904988297356,ER
9006,19,3,1.18399056059039,1,easy,5,-1.00688481330872,-1.388916015625,1.0829610824585,0.600472569465637,1.52473282814026,2.64829993247986,-0.431502342224121,happy,-2.49586283787509,ER
9006,20,3,2.08442364368358,1,ambig,0,0.00876295566558838,-0.802370250225067,1.44177842140198,2.85966300964355,-0.987769901752472,-1.80177664756775,1.10898542404175,happy,61.9012809576998,ER
9006,21,3,1.58414937926528,1,easy,5,0.0106290578842163,0.470913827419281,0.374928057193756,1.03151750564575,0.929556131362915,1.18654823303223,2.51735091209412,happy,-20.3300766407732,ER
9006,22,3,1.28404860657329,0,ambig,0,1.10297679901123,-0.282280951738358,-1.91305065155029,2.40724635124207,-0.73015034198761,-0.964570641517639,-2.59842872619629,sad,-11.100743549385,ER
9006,23,3,1.68423289401611,0,easy,8,1.54850149154663,-0.0131428763270378,3.09489250183105,0.42542564868927,1.96066069602966,1.04866337776184,0.448742151260376,sad,8.29419297110066,ER
9006,24,3,0.983880550718396,0,easy,9,2.32929468154907,-2.36671018600464,0.684820413589478,0.528578281402588,-0.680885672569275,-0.511137962341309,0.393966853618622,sad,25.2973897688477,ER
9006,25,3,2.58463822755621,1,ambig,-1,0.0185647010803223,0.399282068014145,-0.487283051013947,2.00066041946411,0.253968477249146,0.0491002202033997,-1.80798625946045,happy,-9.27194285912493,ER
9006,26,3,1.48412326427496,1,easy,10,-1.95331192016602,1.87572586536407,1.27228224277496,-3.54965448379517,0.609884202480316,0.458538174629211,1.43026530742645,happy,3.22616785538149,ER
9006,27,3,1.48413466820088,1,easy,2,0.970121383666992,-0.984219610691071,-1.53327298164368,-4.44215106964111,0.0350703001022339,-1.51129019260406,-0.584122717380524,happy,-20.1339265858339,ER
9006,28,3,1.98439980947839,1,ambig,1,-2.54505395889282,-1.3107054233551,-2.8979823589325,-2.53620624542236,-3.43159341812134,-1.07129204273224,-2.14580035209656,happy,-25.043654507141,ER
9006,29,3,1.88431629472763,0,easy,2,3.12830877304077,0.971635818481445,0.185403108596802,-1.0877445936203,1.7307323217392,-1.07394933700562,0.751177430152893,sad,-23.0411829882024,ER
9006,30,3,1.88434138336464,1,ambig,-2,-4.33204650878906,0.82978767156601,-0.132795453071594,0.173313707113266,-0.937485337257385,-0.333191454410553,2.34096527099609,happy,-28.8479385406754,ER
9006,31,3,3.68520184758805,1,ambig,4,-0.367318332195282,1.00148546695709,2.0739483833313,2.88932371139526,0.0198798775672913,-1.31837332248688,0.294189929962158,happy,11.0582707110246,ER
9006,32,3,1.283999189561,1,ambig,0,-0.591013073921204,0.0151853710412979,3.23311686515808,4.69359874725342,-0.903145015239716,2.12101316452026,1.47387290000916,happy,26.4556026058329,ER
9006,33,3,1.48413618872436,0,ambig,-2,3.06004762649536,-0.226819008588791,2.19058012962341,6.01499271392822,4.08510208129883,0.705387592315674,5.57811498641968,sad,15.6858469587914,ER
9006,34,3,1.78433883648785,0,easy,9,-1.62912893295288,-0.647687256336212,0.586994469165802,-4.28131055831909,-1.17668926715851,0.995211362838745,-0.674496412277222,sad,-10.3284895421743,ER
9006,35,3,3.68526000761022,0,ambig,-4,0.935303628444672,2.01271629333496,1.49080014228821,-0.620820641517639,-1.17849159240723,0.0811092853546143,3.04968881607056,sad,14.4140457986182,ER
9006,36,3,4.28551058987563,1,ambig,6,0.195103198289871,-1.03399789333344,-1.15125954151154,1.31537556648254,0.143540561199188,1.8547146320343,-1.966761469841,happy,-5.75959396067789,ER
9006,37,3,1.48410615838611,1,easy,10,5.17599582672119,2.21082496643066,-0.675969660282135,-1.65056777000427,1.53182983398438,-0.515112400054932,0.519089818000793,happy,11.8348007568444,ER
9006,38,3,1.38403176677599,0,easy,5,-1.35220646858215,1.12983167171478,0.707289099693298,-4.57242298126221,1.03109610080719,-1.94366776943207,-1.21551620960236,sad,-6.61924391121875,ER
9006,39,3,1.08389146047415,1,ambig,-6,-0.507986664772034,0.123185694217682,-1.06703972816467,-0.252067804336548,-1.47646057605743,1.70807135105133,1.38153576850891,happy,0.919949416532117,ER
9006,40,3,5.08588030515386,1,ambig,10,-0.0189476162195206,-0.872518181800842,-1.63290357589722,0.31685197353363,0.71051812171936,-0.940381348133087,-0.623752295970917,happy,12.8195001825083,ER
9008,1,1,2.18531352765222,1,ambig,3,-0.958779692649841,0.13142466545105,-1.37890255451202,-0.761307299137115,-0.190134882926941,1.11852622032166,-0.0295705050230026,happy,54.4084598467459,ER
9008,2,1,0.883805141839053,1,ambig,0,0.471132874488831,-1.53134644031525,0.289870500564575,2.21329021453857,0.395363330841064,-3.5017409324646,1.34603655338287,happy,-10.878875926112,ER
9008,3,1,0.983844561109944,1,easy,9,-0.0857654809951782,0.719409167766571,4.19093132019043,3.6846079826355,1.64956700801849,-0.204967975616455,2.24166965484619,happy,-22.2348078681892,ER
9008,4,1,1.38405051444619,1,ambig,-1,0.314204573631287,3.28743171691895,-1.33869087696075,-3.18583679199219,0.659885227680206,1.37737584114075,1.58339512348175,happy,30.59893969001,ER
9008,5,1,1.1839906823031,0,easy,5,-1.55942177772522,1.51827037334442,-0.317238509654999,2.45067834854126,1.39241242408752,-1.70358276367188,0.868328750133514,sad,-34.99459034602,ER
9008,6,1,1.48409677602061,1,ambig,-2,-1.39252233505249,-2.36810970306396,0.0247669816017151,-1.34471082687378,-1.41642487049103,1.01105320453644,-1.27273857593536,happy,-8.62868159808755,ER
9008,7,1,0.983783360506152,1,easy,5,1.96676564216614,-4.65126323699951,-4.95020771026611,-2.30064511299133,-1.31357181072235,-0.227540850639343,-3.71539855003357,happy,-1.22470475817479,ER
9008,8,1,0.983839619446279,0,easy,5,-1.07224011421204,-1.73779690265656,1.99842882156372,4.30962896347046,-0.103223085403442,-3.18337273597717,0.403837621212006,sad,-17.1943642604811,ER
9008,9,1,1.08390184639561,0,easy,6,0.8631791472435,-1.79926693439484,-1.49898982048035,2.1572380065918,0.407802730798721,-0.326570212841034,2.22868752479553,sad,-27.5965938527101,ER
9008,10,1,0.883733677779972,1,easy,8,-0.969308257102966,-1.67108583450317,-0.881987690925598,1.88231921195984,-0.632409811019897,-2.16564321517944,1.80318319797516,happy,18.6601010100672,ER
9008,11,1,0.883809703374737,1,ambig,-4,2.21450185775757,-0.402432382106781,1.06630563735962,0.274324655532837,0.407030493021011,-1.29698431491852,-0.380441725254059,happy,35.3756290719838,ER
9008,12,1,1.38410297210659,1,ambig,1,0.789059042930603,2.57694911956787,2.13786458969116,3.44129753112793,1.51619470119476,0.575103044509888,-0.729187071323395,happy,0.547009274856771,ER
9008,13,1,1.08387105602972,1,easy,6,0.940363049507141,2.66391229629517,-1.75424575805664,-1.41497349739075,1.21025085449219,-1.40105140209198,-2.15420722961426,happy,29.3449633148806,ER
9008,14,1,1.38405697662175,1,ambig,5,0.117576122283936,-0.786581873893738,-0.38379630446434,-1.14910101890564,-0.253081381320953,0.489348292350769,-0.649392485618591,happy,28.4729480920457,ER
9008,15,1,0.783753178345023,1,ambig,-1,-1.2044415473938,2.98379564285278,0.801524579524994,-3.34120273590088,0.774678349494934,-0.900650858879089,-2.7882239818573,happy,43.9741494851179,ER
9008,16,1,0.983855964949157,1,easy,9,-1.02354836463928,-0.453108310699463,0.893319249153137,4.53756093978882,-0.369563549757004,0.0547061562538147,-1.62832379341125,happy,29.1746303820586,ER
9008,17,1,0.983850263029552,0,easy,5,-0.974101901054382,0.813458681106567,1.94752883911133,-0.0401966571807861,1.30740427970886,0.647514760494232,-2.48430061340332,sad,-37.1278059964729,ER
9008,18,1,1.48407624911002,0,ambig,-2,2.01460456848145,1.32308077812195,-0.54232132434845,4.9509220123291,0.928863763809204,0.723885178565979,1.62862586975098,sad,-42.9352580619732,ER
9008,19,1,1.48410095742832,0,ambig,2,-0.648789882659912,4.24038410186768,0.603890776634216,-0.12748771905899,-0.561551094055176,-1.12614154815674,0.286727666854858,sad,-3.20102116344517,ER
9008,20,1,1.08392351369011,0,easy,6,-1.71208691596985,0.154806867241859,0.088528037071228,3.20619869232178,-3.44400262832642,1.46438252925873,2.22246813774109,sad,2.06512465679564,ER
9008,21,1,1.2840415054132,1,ambig,0,-0.266455173492432,-2.20456385612488,-2.22512435913086,2.42483329772949,-1.41089522838593,-1.83733236789703,-0.679426729679108,happy,-30.6199415607228,ER
9008,22,1,1.18392872144335,1,ambig,1,-1.78268575668335,-2.29605031013489,0.220376044511795,-1.26110363006592,-0.238522231578827,1.91392469406128,-2.98470449447632,happy,-32.7959799423339,ER
9008,23,1,1.38401478241664,0,ambig,-1,1.06974172592163,-0.613512754440308,0.534332931041718,-1.20219385623932,-0.321297824382782,-1.19343757629395,1.54241728782654,sad,55.1008444136945,ER
9008,24,1,0.883765988657728,1,ambig,-4,-0.885423183441162,0.481875270605087,-4.09500980377197,-3.64843082427979,0.333734273910522,-0.337919652462006,0.39987325668335,happy,-9.33192165358996,ER
9008,25,1,0.983868509172282,0,ambig,-5,0.636961936950684,-1.09201204776764,1.39277541637421,-0.541095793247223,1.14801454544067,0.965307474136353,-3.16939306259155,sad,-18.2741824438395,ER
9008,26,1,0.883808943118794,1,easy,4,-0.13070946931839,-0.604325473308563,3.38287830352783,6.27350425720215,1.03968644142151,-1.94246745109558,-1.06027030944824,happy,36.9956872047116,ER
9008,27,1,1.08391629125862,1,easy,10,0.17156770825386,-2.89236569404602,-3.04882144927979,0.601579368114471,0.452267587184906,-0.4532071352005,0.527192234992981,happy,-3.6829083699792,ER
9008,28,1,0.983881053395436,0,easy,5,2.41435360908508,2.46759963035583,-1.24835979938507,-2.93774175643921,4.2205958366394,2.56704092025757,3.8563756942749,sad,88.1152552247003,ER
9008,29,1,1.88428182231831,0,easy,10,1.22890782356262,-0.15977044403553,0.678423345088959,1.96560704708099,-1.0102686882019,0.527907609939575,2.20471715927124,sad,-34.7932952619102,ER
9008,30,1,1.08390146626763,1,ambig,-2,0.67003858089447,-0.619022727012634,2.6271812915802,1.06671595573425,-0.162003576755524,-2.27615165710449,-0.549928367137909,happy,8.79659061146657,ER
9008,31,1,1.08395810533574,1,ambig,2,0.0225847959518433,3.24212026596069,1.31285965442657,-0.500064492225647,-1.96627748012543,-2.46254539489746,-2.18684506416321,happy,-20.4910082328944,ER
9008,32,1,2.08436978393146,0,ambig,0,-0.275434881448746,1.6986495256424,0.449712127447128,2.16546010971069,-0.35869836807251,-0.0798544883728027,0.959723234176636,sad,24.645786998294,ER
9008,33,1,1.08387029577378,1,ambig,-2,2.91887521743774,1.70556306838989,-1.8106654882431,-0.83805924654007,2.0067286491394,1.17536163330078,0.962618231773376,happy,22.1221708051664,ER
9008,34,1,0.98384722200575,0,ambig,3,-1.26358497142792,-4.31981372833252,-1.61216831207275,2.92910432815552,-0.710871696472168,-1.1167026758194,-3.96929931640625,sad,-10.8112237572202,ER
9008,35,1,0.983863567508649,1,easy,9,-2.90763759613037,3.68008756637573,2.09519815444946,-6.09615039825439,3.71337604522705,5.67744064331055,0.440648078918457,happy,19.7509887001581,ER
9008,36,1,1.28400919453543,1,easy,4,-1.8285276889801,1.24312579631805,-0.965085983276367,-1.06484484672546,2.38188362121582,0.0172713994979858,0.0672578811645508,happy,0.168791752946779,ER
9008,37,1,0.983862807252706,1,easy,5,-1.89401650428772,-1.73686480522156,1.55742716789246,1.08098173141479,0.0316949039697647,0.4776551425457,-2.25462484359741,happy,-23.2872814042959,ER
9008,38,1,0.883804381583104,0,easy,4,-0.842625677585602,3.39950394630432,1.63266921043396,2.37169551849365,-1.18297374248505,0.531474947929382,0.715111136436462,sad,41.284793157544,ER
9008,39,1,1.08385965219054,0,easy,6,0.277761816978455,1.2426540851593,0.389152646064758,0.978078126907349,1.22213041782379,2.25310778617859,3.41080617904663,sad,50.4008997105791,ER
9008,40,1,1.18398193935974,0,easy,9,-0.689076721668243,-0.221488669514656,0.570670127868652,2.75220346450806,1.91547322273254,0.741050124168396,4.83874797821045,sad,-55.1375963952287,ER
9008,1,2,1.18482430294983,1,ambig,1,-1.16814851760864,-2.44645595550537,1.19581031799316,-4.25124454498291,-1.38681399822235,-2.61960339546204,-0.0615938901901245,happy,-14.2980079761303,ER
9008,2,2,0.784540043250962,1,ambig,-5,-2.00554275512695,-1.17874193191528,-0.135445266962051,3.51433086395264,-1.3944878578186,-2.55831575393677,1.60623478889465,happy,-32.2638485918219,ER
9008,3,2,0.883876605898141,1,easy,4,3.6108660697937,2.15002202987671,1.40223121643066,4.92587471008301,3.29120683670044,0.992134928703308,2.45343017578125,happy,15.8163466810755,ER
9008,4,2,0.983907282225633,0,easy,9,-0.340309202671051,-0.629958033561707,1.7648720741272,-5.14528226852417,-1.6041978597641,1.85294127464294,-2.96752786636353,sad,19.9837686078084,ER
9008,5,2,0.883969357123767,1,ambig,-4,0.956910610198975,4.40370988845825,-1.2691969871521,-0.0749399662017822,3.48593926429749,-1.3564760684967,3.27972769737244,happy,-23.8180880534488,ER
9008,6,2,1.0839208527943,0,ambig,-2,1.28117561340332,0.446154654026031,-0.168218731880188,-2.37592148780823,-0.869659423828125,-0.623378813266754,-1.25754570960999,sad,-25.0850084262057,ER
9008,7,2,1.38420256563575,1,ambig,-1,2.30320906639099,-0.0765746533870697,-1.03412103652954,-1.909308552742,5.47254467010498,-0.521652460098267,2.88367366790771,happy,-17.8563186649313,ER
9008,8,2,0.984023601385644,0,easy,7,-1.69818711280823,-2.74835705757141,-0.313246548175812,-1.36174142360687,-3.936936378479,-2.84422850608826,-2.26718044281006,sad,20.361595729583,ER
9008,9,2,0.783760400776529,1,easy,3,-1.92548704147339,-3.06741762161255,1.35022735595703,-2.29502701759338,-1.10900497436523,2.02895092964172,0.66099488735199,happy,-53.4162271494053,ER
9008,10,2,0.984006495626815,1,easy,5,2.84357976913452,1.54821002483368,0.332362949848175,2.24410438537598,2.79979348182678,0.897252857685089,2.15196967124939,happy,55.4834413554063,ER
9008,11,2,1.18402679446062,0,easy,5,-0.115563273429871,-0.737618803977966,-1.19991612434387,4.00461435317993,-3.12286901473999,-0.00539147853851318,-0.937138557434082,sad,-45.3691151611453,ER
9008,12,2,1.28408027846655,1,easy,8,0.647444665431976,1.46575880050659,-1.7794828414917,-2.77233219146729,-0.46335506439209,-0.388712286949158,1.59681832790375,happy,33.0203204449355,ER
9008,13,2,1.18398992204716,0,ambig,-3,-1.38893270492554,-4.84255695343018,-4.63984823226929,-5.02921342849731,-4.66567134857178,-0.249822109937668,-1.45331215858459,sad,-40.5291980203059,ER
9008,14,2,0.983918305936882,0,easy,7,0.541436672210693,-0.909134387969971,-1.20171284675598,2.15136384963989,1.82205367088318,-5.79805278778076,-0.00459873676300049,sad,97.8467961554968,ER
9008,15,2,1.18409331685606,0,ambig,5,1.45136141777039,-0.16242927312851,2.43382263183594,-0.678042590618134,-0.417055249214172,0.606107592582703,2.44132232666016,sad,-10.0930875291076,ER
9008,16,2,0.8838655821869,1,easy,8,1.20236265659332,0.532809376716614,0.565041780471802,-0.330203652381897,2.93932104110718,0.194411277770996,-1.13081908226013,happy,48.5452774932393,ER
9008,17,2,1.28404606694889,1,ambig,0,0.166691198945045,0.420753955841064,-0.361860007047653,-0.977973878383636,0.152896076440811,0.704380750656128,-0.265223264694214,happy,19.8233524940462,ER
9008,18,2,1.18407697135319,0,easy,5,-0.16030740737915,-1.62112426757812,-2.00069522857666,-3.4972357749939,-0.0917927920818329,1.15257406234741,1.53075873851776,sad,22.9494878508954,ER
9008,19,2,0.883908156519993,1,easy,8,0.2663494348526,1.58372020721436,-0.984333753585815,0.165067330002785,2.82230687141418,-5.84119987487793,-0.312995791435242,happy,35.453228322506,ER
9008,20,2,1.38409536954711,1,ambig,-3,2.53449940681458,-3.201500415802,-1.52631485462189,2.19188737869263,-0.012245237827301,0.857267022132874,-1.81492161750793,happy,25.4309556124073,ER
9008,21,2,0.983919446320812,1,ambig,1,3.3361701965332,1.05737662315369,-3.03032445907593,-2.50295639038086,-3.12348604202271,1.23983478546143,-2.26321315765381,happy,-39.1640768133636,ER
9008,22,2,0.783947803867648,1,easy,3,2.39355659484863,0.0424492955207825,-1.30613243579865,3.90287280082703,-1.41654062271118,-0.57353413105011,1.92880833148956,happy,-21.7042125928248,ER
9008,23,2,1.58422742600521,1,ambig,-1,1.06295740604401,-0.379966795444489,-2.7508180141449,2.93156838417053,1.27922606468201,-1.98699069023132,-1.85811495780945,happy,-5.49077318788645,ER
9008,24,2,1.48424236503462,0,ambig,2,-1.42691886425018,-0.671443998813629,-0.547862350940704,0.287085384130478,-2.41520023345947,-0.758350372314453,0.3101786673069,sad,-8.895679262611,ER
9008,25,2,0.983987869356099,0,easy,5,1.43619465827942,-0.409162431955338,2.95308518409729,-0.398468017578125,2.40475988388062,-2.27867364883423,-1.02436220645905,sad,-27.4546569686838,ER
9008,26,2,1.48410665934793,0,easy,10,-1.97667980194092,2.01192378997803,-2.40042686462402,-2.40340495109558,-2.9632773399353,-0.34045821428299,-0.518371939659119,sad,2.98021764394265,ER
9008,27,2,0.983929709776078,1,easy,5,0.885571300983429,0.447913348674774,0.639211714267731,1.25584077835083,4.56345748901367,1.50195825099945,0.612502336502075,happy,48.5953801812291,ER
9008,28,2,0.783859994305686,1,ambig,3,-1.96447432041168,3.89454030990601,3.31116843223572,-1.08738017082214,2.12114787101746,3.17772006988525,4.81244134902954,happy,-1.0716206290304,ER
9008,29,2,1.48431763037345,0,ambig,-2,2.33778834342957,-1.01201248168945,0.931085824966431,1.55614423751831,-1.809490442276,1.08700323104858,-1.41225361824036,sad,-43.9115831393111,ER
9008,30,2,1.08398889570162,1,easy,10,-1.26192462444305,-2.23854684829712,1.27366065979004,-7.39546775817871,-4.2194709777832,-0.584306240081787,2.21971106529236,happy,-72.8964891598015,ER
9008,31,2,1.28413083548708,1,easy,8,-0.835243225097656,-0.563393473625183,0.339063763618469,-0.632605969905853,-1.78844106197357,1.81740689277649,-1.27103090286255,happy,-33.4575325710707,ER
9008,32,2,1.48443242902155,0,ambig,2,-0.0180060863494873,0.266251444816589,-1.1959867477417,3.8265585899353,-1.50806283950806,2.96355867385864,-1.22907340526581,sad,-32.0207631332839,ER
9008,33,2,0.98396734244551,0,easy,5,2.64029097557068,1.8564019203186,-1.17370176315308,0.200332641601562,0.28073462843895,-0.577274978160858,0.153475940227509,sad,-15.0420848716923,ER
9008,34,2,1.18393100221118,0,ambig,1,1.84557831287384,1.5239794254303,2.6240336894989,3.27475500106812,2.20624303817749,4.6639575958252,4.61245822906494,sad,21.1218943011507,ER
9008,35,2,0.884032458367443,0,ambig,0,1.18146622180939,0.727218270301819,2.81071329116821,0.461766481399536,1.41271448135376,0.672154307365417,0.378886491060257,sad,12.5897530562943,ER
9008,36,2,1.78428079597279,0,easy,9,-0.991518378257751,2.12419748306274,-1.20170307159424,-3.00850343704224,-2.58355855941772,1.83041763305664,2.91667890548706,sad,-7.80523281237069,ER
9008,37,2,1.28412285279961,0,ambig,0,-2.62477111816406,1.33782720565796,-1.59874141216278,-0.491847634315491,-0.73032933473587,-1.66807460784912,0.815746605396271,sad,6.67248198667363,ER
9008,38,2,1.18409673800778,0,easy,7,-2.32406234741211,-0.975675344467163,0.263388425111771,0.907090663909912,-0.101916909217834,-0.967915654182434,-0.579101324081421,sad,-5.44716643580374,ER
9008,39,2,1.48421309518062,1,ambig,-2,0.380456030368805,-3.24164485931396,-2.92769718170166,-3.73443627357483,-0.428552567958832,-4.53125953674316,-3.62513542175293,happy,-22.7358812497684,ER
9008,40,2,1.18404047906773,1,ambig,5,0.212019145488739,-1.15081000328064,-0.052497386932373,1.61834001541138,-0.187622129917145,-0.284579038619995,-0.591710269451141,happy,30.5788564609321,ER
9008,1,3,1.38494685620861,1,ambig,1,0.186141967773438,2.67362451553345,0.000470638275146484,2.19854927062988,1.61047220230103,-0.39630925655365,1.09965205192566,happy,29.4645349182676,ER
9008,2,3,0.98387763224367,1,easy,9,2.19037580490112,1.18366479873657,-2.11053824424744,-1.78740382194519,-0.222428232431412,-1.35444116592407,0.510580003261566,happy,6.84969228383492,ER
9008,3,3,0.683730864832953,1,easy,6,-0.135570347309113,-0.743706524372101,0.869799196720123,-2.79506635665894,1.73445415496826,1.23111176490784,-1.46714234352112,happy,12.9416963186096,ER
9008,4,3,0.883802100815263,0,ambig,-4,-2.47794318199158,0.499483674764633,-1.40182423591614,-3.89165043830872,-6.40164470672607,1.87241435050964,-3.43886756896973,sad,-8.12824279026529,ER
9008,5,3,0.88382756938951,1,ambig,0,-0.494575798511505,4.43367576599121,4.02930927276611,-0.51783299446106,0.625789821147919,-0.160748839378357,2.27826070785522,happy,-27.3739143811075,ER
9008,6,3,0.783772944999662,1,easy,5,3.65028929710388,1.76082825660706,3.80670809745789,-0.259199798107147,0.227482676506042,1.80098104476929,1.79846382141113,happy,-16.0063820565129,ER
9008,7,3,1.28400653363962,1,ambig,-4,-1.31556129455566,1.52681350708008,1.50311517715454,2.62906980514526,1.14415216445923,-0.196271896362305,-0.652640581130981,happy,63.3768308105525,ER
9008,8,3,1.28400311248785,0,ambig,0,-1.44132471084595,-0.259484708309174,1.20611619949341,4.74670743942261,-0.485894083976746,-1.68554246425629,3.33160805702209,sad,-75.9988422799734,ER
9008,9,3,1.28397688365765,1,ambig,0,0.0118623971939087,1.16417825222015,-1.18495035171509,-1.14012897014618,0.111228823661804,-0.646599769592285,0.574245691299438,happy,25.1095161372978,ER
9008,10,3,1.08389652460397,0,easy,10,-1.040114402771,-2.43240404129028,3.05387115478516,0.570571303367615,-2.97279787063599,1.34481167793274,-0.320735335350037,sad,-34.1789728787302,ER
9008,11,3,0.983857105333087,0,ambig,5,-1.93733406066895,-0.316819459199905,-2.05651760101318,2.03456282615662,0.457127869129181,0.796997964382172,-2.13430261611938,sad,40.0389150414096,ER
9008,12,3,1.58414417797896,0,easy,5,-2.01626539230347,-1.49979424476624,1.39339876174927,-2.4594452381134,-1.80494046211243,1.01716232299805,4.23901081085205,sad,-33.4872827930012,ER
9008,13,3,1.08391287010686,0,ambig,2,-1.94519114494324,2.2564480304718,-4.44608354568481,-1.37742114067078,-2.41548895835876,-3.27470755577087,-0.588212132453918,sad,-27.5626751130875,ER
9008,14,3,1.58415938309791,0,easy,5,0.0859640389680862,-4.73867082595825,-2.39407229423523,0.570542693138123,-0.60469776391983,5.24335098266602,-0.58684891462326,sad,-6.34910534301534,ER
9008,15,3,0.983863567508649,1,easy,5,1.35049843788147,1.01945424079895,-1.24372291564941,0.971029281616211,2.04349732398987,0.93589586019516,1.5410053730011,happy,-24.9320492626069,ER
9008,16,3,0.883810463630695,1,ambig,4,0.410897433757782,0.0280723571777344,-3.29104518890381,-4.92023944854736,0.403323382139206,-6.55765104293823,-0.750420689582825,happy,-51.7894422988265,ER
9008,17,3,1.08384672783939,1,ambig,-2,-1.40652716159821,0.0404864549636841,2.85162210464478,-1.72505438327789,0.927698850631714,-1.66303181648254,0.547926187515259,happy,27.9259323963072,ER
9008,18,3,0.88382414823775,0,ambig,0,-1.16234230995178,-2.1311936378479,-5.70543813705444,-2.63434314727783,-0.166641145944595,3.81298828125,-0.758228778839111,sad,-2.3786922221789,ER
9008,19,3,0.983860146356875,0,easy,5,-0.670735776424408,-1.41367149353027,0.517384827136993,3.82764005661011,1.76713287830353,0.834457993507385,2.39882802963257,sad,-3.97408641081638,ER
9008,20,3,1.08389804511586,1,ambig,2,2.45911359786987,-0.247384488582611,1.29904747009277,0.20380687713623,0.628534972667694,0.108681380748749,0.85756379365921,happy,-16.9016726865959,ER
9008,21,3,0.783751657833136,1,ambig,1,0.310090631246567,0.822134137153625,-1.40113759040833,0.757336616516113,2.39315152168274,2.94192934036255,3.00857305526733,happy,1.44715337380952,ER
9008,22,3,0.983865088020536,0,easy,5,-1.21100783348083,-3.25852942466736,-2.25071096420288,4.82458591461182,-1.96954762935638,0.505831360816956,-4.1255145072937,sad,-5.87977523409446,ER
9008,23,3,1.08392047266634,0,easy,10,-0.542137861251831,-1.18309164047241,1.07925939559937,-1.99148428440094,-0.212842851877213,-1.57492458820343,-0.683671057224274,sad,22.3985632395296,ER
9008,24,3,0.88381274439854,1,easy,8,-0.696882903575897,3.51096343994141,3.31890678405762,-2.15693473815918,0.322194218635559,1.90898442268372,-5.29634952545166,happy,27.4505514642924,ER
9008,25,3,1.38404291188672,1,easy,7,-0.91019082069397,-0.0875597447156906,-1.21599984169006,-3.20495533943176,1.64080858230591,0.631499171257019,-2.03343772888184,happy,-9.18559783388878,ER
9008,26,3,1.28399170864864,1,easy,12,0.89908766746521,3.24769115447998,2.22898650169373,-0.521664023399353,0.271133959293365,3.00528192520142,1.21344351768494,happy,-0.722137125114082,ER
9008,27,3,0.883784234800487,0,easy,4,1.35613799095154,-0.994197607040405,0.336815237998962,-3.15092277526855,1.57404184341431,-0.714161276817322,-2.23708939552307,sad,-47.2176995141453,ER
9008,28,3,1.88430272935688,0,ambig,-2,2.40753483772278,-2.32119297981262,-0.642200708389282,-2.36856603622437,-0.246045976877213,1.35434067249298,-0.815839529037476,sad,-26.8396130072931,ER
9008,29,3,1.58414265746708,1,ambig,-3,1.91052317619324,-0.844289541244507,3.58836483955383,2.48078346252441,1.92563986778259,-0.398437857627869,-1.13615834712982,happy,-4.11162557194224,ER
9008,30,3,1.1839382246427,0,ambig,5,-0.386334776878357,-0.479111105203629,-0.741615414619446,-0.657051742076874,1.27917098999023,2.73742437362671,0.837686419487,sad,5.52639039008721,ER
9008,31,3,1.38405431572593,0,ambig,1,0.027843713760376,-2.28787112236023,-0.152778044342995,0.784179508686066,-3.89849925041199,-0.693581938743591,-1.45208811759949,sad,-12.4651685524914,ER
9008,32,3,1.28399741056825,0,easy,4,0.942855477333069,0.618167281150818,2.89747953414917,-3.86880850791931,-0.808137476444244,0.669164061546326,0.634650468826294,sad,10.4805152447048,ER
9008,33,3,0.983840379702258,1,ambig,1,0.530449986457825,-1.873046875,1.22322535514832,3.31100940704346,-3.26889896392822,0.826192140579224,-1.28512465953827,happy,-32.4270889951656,ER
9008,34,3,0.883821867469891,1,easy,4,-4.69714689254761,-2.58972883224487,-1.16439318656921,-4.20763826370239,-4.26604843139648,-1.76959991455078,-1.83326268196106,happy,32.8614110367857,ER
9008,35,3,1.08389538422006,1,ambig,-2,-1.74814546108246,4.41142463684082,0.417918086051941,2.29698276519775,-1.64465689659119,-3.56446504592896,-2.8563666343689,happy,-15.2441912406291,ER
9008,36,3,1.88433123895493,1,easy,10,-0.692975759506226,-1.8058887720108,-1.81558895111084,-0.0768336355686188,0.157031774520874,0.95976459980011,0.832110404968262,happy,-28.7022328402259,ER
9008,37,3,2.28448739552658,1,easy,6,1.33655881881714,-1.15355777740479,-0.134331315755844,0.262250006198883,0.722460269927979,2.03884243965149,-1.80703783035278,happy,1.87009513146752,ER
9008,38,3,0.883862161035154,0,easy,8,-0.253479480743408,-2.68619394302368,1.20771408081055,-0.117011487483978,1.23364019393921,-3.62632036209106,-1.58562219142914,sad,7.59393866563604,ER
9008,39,3,0.783760780904515,1,easy,3,-0.71368819475174,2.22269535064697,1.61030960083008,-0.698730766773224,-1.13051867485046,2.68461418151855,-0.848516583442688,happy,-12.4293559479225,ER
9008,40,3,0.98387078994017,1,ambig,1,-0.197605043649673,0.937566995620728,2.68863010406494,1.0300350189209,1.14598798751831,1.56071805953979,0.617103934288025,happy,29.3888218975059,ER
9009,1,1,1.98525570164568,1,ambig,-1,-2.52933716773987,-0.45101672410965,2.10802340507507,-1.25306129455566,1.99878370761871,-1.35894060134888,6.26752281188965,happy,20.6446225256515,ER
9009,2,1,2.78474738505096,1,ambig,-1,-1.39396905899048,1.33364295959473,-0.160852670669556,-0.706406235694885,2.28100752830505,2.08894681930542,3.60165143013,happy,14.585645959504,ER
9009,3,1,1.0838802209649,1,easy,10,1.96466779708862,8.47573184967041,-1.39669752120972,-1.71967685222626,1.51806211471558,1.22858619689941,6.85622453689575,happy,-0.64346340798571,ER
9009,4,1,1.38406641111454,0,ambig,1,-2.30925130844116,-1.82880663871765,-2.57209825515747,1.55564522743225,0.619876980781555,1.01555991172791,-1.15630638599396,sad,-26.9345000846757,ER
9009,5,1,1.88425381769635,0,ambig,-2,-0.264104187488556,2.3241879940033,-4.57123756408691,-1.08224773406982,-2.03523397445679,-1.269615650177,-5.93827867507935,sad,17.6955014043884,ER
9009,6,1,1.68423397464651,1,ambig,-4,2.03425002098083,1.07615780830383,0.334137916564941,-1.10715389251709,0.94134521484375,-1.86879634857178,6.41146898269653,happy,-9.76091853426508,ER
9009,7,1,1.18396179794757,1,ambig,-3,0.020611047744751,-0.0790709257125854,-2.72509622573853,-2.08034110069275,-2.4780900478363,-2.65803194046021,-0.521806716918945,happy,-14.3577159422681,ER
9009,8,1,1.7842562505607,0,easy,7,2.93139362335205,-3.28745031356812,1.6841254234314,-3.57714462280273,1.78212630748749,-1.41014790534973,-0.276955723762512,sad,-21.5174429066636,ER
9009,9,1,1.18395191443616,0,ambig,1,-1.34154450893402,2.04386520385742,0.991893410682678,-0.316036760807037,3.88240480422974,4.97800731658936,-0.848915994167328,sad,-44.945459685662,ER
9009,10,1,1.1839682602435,1,easy,7,3.48569011688232,0.0637784898281097,1.30844295024872,1.24956226348877,2.44819831848145,1.38669788837433,-2.68360948562622,happy,10.5310755284909,ER
9009,11,1,1.68422409113511,0,easy,8,1.79944336414337,-3.33102703094482,1.67257606983185,3.04897594451904,0.215650081634521,3.07092094421387,-4.16633319854736,sad,-17.7820832960045,ER
9009,12,1,1.18393442822367,0,easy,5,-1.80405306816101,0.0451302528381348,0.911650419235229,-2.58656597137451,1.03729271888733,0.269943594932556,-4.97373628616333,sad,-46.0876205501633,ER
9009,13,1,1.38407705489607,0,easy,5,-1.75654101371765,-4.05445718765259,0.579694628715515,-1.55745005607605,-3.55839920043945,-1.65569961071014,-4.99134683609009,sad,2.50395032152444,ER
9009,14,1,1.28402930993323,1,ambig,0,-0.541142761707306,-0.263854324817657,-2.56776571273804,-0.341870069503784,0.54894232749939,-1.0229549407959,0.541658282279968,happy,-22.4165433129133,ER
9009,15,1,2.08445650570735,0,easy,12,-0.143048822879791,-3.34613275527954,0.380871564149857,1.50684249401093,-1.12952482700348,-1.13009333610535,1.56698417663574,sad,42.1422928858557,ER
9009,16,1,3.28507772241322,0,easy,8,-1.39455080032349,-1.77767074108124,-1.64632534980774,-0.290610551834106,-0.953102350234985,-1.24493479728699,4.85531234741211,sad,-9.40734968111514,ER
9009,17,1,1.28402246750227,1,ambig,4,-0.178199023008347,-1.99345099925995,-2.18998408317566,-1.33217787742615,-2.66071891784668,-2.9371383190155,-0.0787029266357422,happy,0.58254083725319,ER
9009,18,1,2.3846191274836,0,easy,7,0.757584929466248,-2.55786275863647,1.54462075233459,1.64465141296387,-2.74513864517212,-1.55865478515625,-3.64100623130798,sad,18.0048994934781,ER
9009,19,1,1.58418204819807,0,ambig,-1,1.00787353515625,0.234163582324982,0.128727167844772,-0.782049953937531,-0.570819854736328,-0.883207440376282,-3.86908340454102,sad,-1.18343186785873,ER
9009,20,1,2.68472054751612,1,ambig,2,-2.28372621536255,5.40492916107178,-0.260305255651474,-3.75548124313354,0.166316270828247,-1.49226832389832,0.480206370353699,happy,6.07320165534429,ER
9009,21,1,1.78426309299169,0,easy,7,0.0305404663085938,-0.0826865434646606,2.34282350540161,0.860488474369049,-0.598143875598907,-1.55971372127533,-3.89527034759521,sad,-41.6898739900347,ER
9009,22,1,1.58413453131629,1,easy,11,-1.54889512062073,0.524790406227112,1.51648187637329,-0.497663676738739,0.501660227775574,0.0697312355041504,-1.54073810577393,happy,6.65733367246269,ER
9009,23,1,1.4840772829771,1,easy,6,-0.0890001654624939,-8.13514614105225,-2.36628007888794,-0.498724102973938,-1.27845847606659,1.61300599575043,-1.18270206451416,happy,-4.55647746881914,ER
9009,24,1,1.58436147194377,1,ambig,-3,0.188403427600861,0.606145739555359,0.129152655601501,2.34684300422668,0.276015669107437,-0.785523056983948,1.51464462280273,happy,4.84640534511789,ER
9009,25,1,2.78482417233195,0,ambig,-1,-0.380472362041473,3.63022303581238,-1.20992505550385,1.87230539321899,1.57840323448181,1.35646319389343,-1.38432586193085,sad,2.60780823666414,ER
9009,26,1,1.08389618663719,1,easy,6,1.02046585083008,5.13075637817383,-2.99304103851318,-0.11415696144104,0.523043632507324,3.74827194213867,-2.62588429450989,happy,-42.004253985923,ER
9009,27,1,1.28403159074355,1,ambig,0,3.11107397079468,3.56673622131348,-1.254030585289,8.91919612884521,-0.416067600250244,0.164024114608765,0.00726413726806641,happy,52.4689046026648,ER
9009,28,1,1.88431197835968,0,ambig,2,0.797717094421387,0.682781338691711,3.1715714931488,-0.437201619148254,2.91895771026611,2.20119786262512,5.91572093963623,sad,-73.0769105642967,ER
9009,29,1,1.68422865275576,1,easy,8,-2.020339012146,1.85577321052551,-2.1417248249054,1.64920043945312,-0.295236587524414,-1.12649834156036,-3.93253087997437,happy,-15.7674597308376,ER
9009,30,1,1.38407591449092,1,easy,3,0.960688650608063,-4.02932453155518,-6.36362504959106,-3.95383858680725,-1.88600611686707,-4.26803302764893,-0.27077305316925,happy,10.9383260700704,ER
9009,31,1,1.18392302417203,0,easy,9,-2.01478314399719,-2.64516949653625,-1.51822376251221,-1.94113004207611,-0.109936326742172,-3.47385835647583,4.07002210617065,sad,-1.11633533622706,ER
9009,32,1,2.18440161420551,1,ambig,-1,-0.643086373806,3.33157467842102,1.88312220573425,3.77915549278259,-0.78840559720993,1.52051532268524,2.4892041683197,happy,-11.1674518334299,ER
9009,33,1,2.9848839295625,0,easy,9,1.67435574531555,1.05929374694824,0.939896106719971,3.53987836837769,1.33408522605896,-0.0684018731117249,-0.411799550056458,sad,-17.2864270675893,ER
9009,34,1,1.58412806902038,0,easy,5,1.55188608169556,1.73231947422028,2.87738108634949,0.495936036109924,-0.715086698532104,0.98095703125,4.38726902008057,sad,32.0749817486841,ER
9009,35,1,1.18397662321468,1,easy,5,-2.93260812759399,3.07380151748657,-0.892010390758514,-0.694473505020142,-0.629338979721069,-1.02661228179932,2.63632726669312,happy,30.0615829622466,ER
9009,36,1,1.28396696778429,1,easy,8,2.87284278869629,2.44722557067871,2.07598066329956,3.9278621673584,0.179542064666748,-0.00598865747451782,-0.22615522146225,happy,-14.2083895908372,ER
9009,37,1,2.08441088950082,0,ambig,0,0.471186757087708,0.194064259529114,3.63248443603516,1.76307845115662,-1.20195770263672,3.35073614120483,-3.16429924964905,sad,18.541527000783,ER
9009,38,1,1.98441788398583,1,ambig,-1,1.38496232032776,-2.29443001747131,2.09097719192505,3.09382247924805,-0.710180282592773,-2.14404940605164,3.6164698600769,happy,26.7816789834264,ER
9009,39,1,1.4841981659244,1,ambig,6,-0.496666193008423,-1.66573631763458,1.51912498474121,-6.5064754486084,-0.145063161849976,0.532898545265198,-2.74192094802856,happy,-34.9790718319543,ER
9009,40,1,2.18444761054707,1,ambig,-1,1.13137125968933,-0.0870705246925354,-2.47334289550781,0.277811169624329,1.65123462677002,0.356823444366455,-3.29898881912231,happy,-31.102497004555,ER
9009,1,2,1.38508137170974,1,easy,7,2.14863204956055,1.79391801357269,1.72242558002472,0.896971166133881,2.04245781898499,-3.57010722160339,-0.921742081642151,happy,11.128465523696,ER
9009,2,2,1.28397761156584,1,easy,8,0.950101852416992,-0.931715846061707,-4.23311471939087,-6.63072395324707,-1.71726703643799,-5.20943307876587,-3.52655339241028,happy,-27.216419617061,ER
9009,3,2,0.883801076846584,1,ambig,4,-4.825767993927,-2.72859930992126,0.593488931655884,-1.64358508586884,-0.812618732452393,-0.305661797523499,-4.95631790161133,happy,-57.5290645666103,ER
9009,4,2,1.28400498128975,1,easy,8,-3.96518325805664,-3.81314897537231,-2.51368641853333,-0.703026115894318,-0.251567006111145,-1.48786389827728,0.202329039573669,happy,-15.5444691893818,ER
9009,5,2,1.28401296412589,1,easy,4,-0.55029559135437,-3.10061502456665,0.613236963748932,3.07272243499756,-1.0526716709137,-2.09690856933594,2.4690113067627,happy,-60.7098976664673,ER
9009,6,2,1.38415916406781,0,easy,9,3.89500498771667,-0.944943726062775,4.39209461212158,-0.644412696361542,2.21321249008179,2.9015531539917,-2.29475164413452,sad,-18.9534886342534,ER
9009,7,2,1.5841919317095,1,ambig,3,-2.89587068557739,-2.48069715499878,-3.97072005271912,-3.63408327102661,0.605956435203552,-1.80447006225586,-3.42845416069031,happy,17.8621477112187,ER
9009,8,2,1.083922796091,1,ambig,-6,3.00096225738525,0.667722582817078,2.3867769241333,-1.93577265739441,-3.86910629272461,-0.198445200920105,-0.182727575302124,happy,6.44953528888528,ER
9009,9,2,1.48411871769802,0,easy,6,0.249598741531372,-0.160283803939819,-0.739172101020813,5.27693462371826,-1.50743508338928,2.91548800468445,1.60680186748505,sad,-21.0985650637085,ER
9009,10,2,1.18398916767148,0,easy,9,0.906814455986023,2.39062833786011,0.637671530246735,-7.63710594177246,-0.704515933990479,-3.56869173049927,-6.4179162979126,sad,19.046031850259,ER
9009,11,2,0.883826165760169,1,ambig,-4,3.65150475502014,-3.02321887016296,-3.39570426940918,7.86783933639526,-0.0629150867462158,-0.457270503044128,1.78696441650391,happy,39.8668215066919,ER
9009,12,2,1.3840793357064,1,easy,9,2.24665093421936,4.59370708465576,2.2626748085022,-0.0286761522293091,5.78533887863159,3.6715362071991,8.80209350585938,happy,-22.0917637965977,ER
9009,13,2,1.083922796091,1,easy,10,-2.53757977485657,3.58037781715393,1.27143478393555,0.657310247421265,-2.04996466636658,1.47167193889618,5.17406463623047,happy,31.5828110318658,ER
9009,14,2,2.08441659152663,0,ambig,0,-4.71159076690674,4.04450798034668,-2.70673990249634,-3.97649073600769,-2.98418807983398,0.0790627002716064,-2.39081573486328,sad,-11.3461084459745,ER
